time,ax,ay,az,gx,gy,gz
0.0,9.8497,0.1046,-0.0557,0.4153,0.0235,-0.0029
0.01,9.9939,0.148,-0.0018,0.4034,-0.0376,-0.0007
0.02,10.2343,0.144,0.0096,0.3394,-0.0066,0.0013
0.03,10.4486,0.218,0.0512,0.2083,-0.0008,0.0189
0.04,10.4061,0.0991,0.0827,0.1395,0.0003,-0.0149
0.05,10.4494,-0.0542,0.1417,0.002,0.0036,-0.0169
0.06,10.5792,-0.023,0.0811,-0.0987,0.0122,0.0247
0.07,10.442,-0.1803,0.0065,-0.1862,-0.0007,-0.0093
0.08,10.2204,-0.0951,0.1236,-0.2923,-0.0074,-0.0253
0.09,10.1397,-0.2056,-0.0004,-0.3411,-0.0082,-0.0097
0.1,9.8732,-0.2031,0.0096,-0.39,-0.0122,-0.0066
0.11,9.6797,-0.1306,0.0048,-0.4198,0.0158,0.0311
0.12,9.5532,-0.242,-0.036,-0.4057,-0.0129,0.0185
0.13,9.2247,-0.2122,-0.0156,-0.2816,0.0169,0.023
0.14,9.1249,-0.1233,-0.0643,-0.1926,0.0004,0.0164
0.15,9.1548,0.0144,-0.1413,-0.0945,-0.0104,0.0189
0.16,9.1132,-0.0534,0.0096,0.0111,0.0124,-0.0138
0.17,9.2722,-0.061,-0.0818,0.1465,-0.0145,-0.004
0.18,9.281,0.1088,-0.0828,0.2587,0.0128,-0.0198
0.19,9.3914,0.1978,-0.0043,0.3537,0.0043,-0.0042
0.2,9.8032,0.2537,-0.0124,0.3912,-0.0119,0.0137
0.21,9.8641,0.1766,0.025,0.4317,0.0106,0.0027
0.22,10.0808,0.1672,0.1591,0.3548,0.0109,0.0262
0.23,10.1344,0.2165,0.047,0.3352,0.0232,-0.0228
0.24,10.3421,0.022,0.0657,0.232,0.0193,0.01
0.25,10.484,0.0424,0.1009,0.1375,0.0098,-0.025
0.26,10.4167,0.012,0.1536,-0.0037,-0.0226,0.0019
0.27,10.5137,-0.0345,0.0205,-0.0926,0.049,0.0148
0.28,10.3543,-0.1369,-0.0152,-0.2168,-0.0281,-0.0043
0.29,10.249,-0.154,0.0334,-0.325,0.019,0.011
0.3,10.0574,-0.3104,-0.0449,-0.3722,0.0086,-0.0192
0.31,10.0652,-0.2323,-0.0137,-0.4037,-0.0235,-0.0333
0.32,9.7231,-0.1722,0.0027,-0.38,-0.0025,0.0111
0.33,9.4598,-0.2219,-0.0949,-0.3692,-0.0016,0.0349
0.34,9.46,-0.1321,-0.1451,-0.2707,0.0261,-0.0199
0.35,9.1896,-0.0628,-0.087,-0.1624,-0.0143,0.0244
0.36,9.2502,-0.0447,-0.0559,-0.0545,-0.0052,0.0009
0.37,9.081,0.0411,-0.1834,0.092,-0.0467,-0.0267
0.38,9.1937,0.0415,-0.0484,0.1948,0.0347,-0.0226
0.39,9.4303,0.1284,-0.0312,0.2773,-0.0214,0.0003
0.4,9.6305,0.2058,-0.0005,0.3549,0.0065,-0.0081
0.41,9.7703,0.2038,0.041,0.3979,-0.002,-0.0263
0.42,9.9442,0.1697,0.1201,0.406,-0.002,-0.0339
0.43,10.1204,0.1953,0.0213,0.3316,0.0162,-0.0169
0.44,10.1942,0.1882,0.0702,0.2989,0.0334,0.0039
0.45,10.3849,0.0047,0.0636,0.1846,0.005,-0.0001
0.46,10.4862,0.1101,0.0966,0.1299,0.0131,-0.01
0.47,10.6314,-0.0244,0.1766,-0.0163,0.0066,0.004
0.48,10.5395,-0.0453,0.027,-0.137,0.0204,0.0208
0.49,10.2809,-0.0597,0.0371,-0.2212,-0.0093,0.0079
0.5,10.3107,-0.2304,0.1276,-0.3152,0.0215,-0.0024
0.51,10.0823,-0.2249,0.0831,-0.4014,0.0222,0.0186
0.52,9.8685,-0.2144,-0.0156,-0.4013,0.0217,-0.0192
0.53,9.7796,-0.2316,0.0154,-0.3915,-0.0132,-0.0045
0.54,9.6372,-0.0808,-0.0376,-0.3699,-0.0034,-0.004
0.55,9.4853,-0.1703,-0.002,-0.2688,0.0048,-0.0247
0.56,9.245,-0.1037,-0.0888,-0.1556,-0.0274,-0.0084
0.57,9.2429,-0.0074,-0.0483,-0.0374,0.0319,-0.0415
0.58,9.3082,-0.0177,0.0344,0.0552,-0.0002,0.0382
0.59,9.4311,0.0788,-0.0571,0.2201,0.0057,-0.0187
0.6,9.4371,0.1617,-0.066,0.2895,-0.0115,0.0317
0.61,9.6232,0.1632,-0.0076,0.3605,-0.0265,0.0008
0.62,9.7378,0.1931,-0.0333,0.4035,-0.0121,0.0113
0.63,9.9276,0.1713,0.1344,0.3797,0.0044,-0.0098
0.64,10.2765,0.1042,0.0527,0.3689,0.0135,0.0042
0.65,10.4826,0.1619,0.0548,0.2842,0.0032,0.013
0.66,10.4907,0.1863,0.0452,0.1792,0.0069,0.0133
0.67,10.6481,0.0433,0.1526,0.0963,-0.0067,0.0155
0.68,10.6107,-0.0063,0.143,-0.0053,0.0099,-0.0074
0.69,10.4857,-0.0413,0.0676,-0.1374,0.0297,-0.0096
0.7,10.4675,-0.191,0.1059,-0.2365,0.0141,-0.0319
0.71,10.4176,-0.0824,-0.0208,-0.3454,0.0162,0.0105
0.72,10.1157,-0.1823,0.0365,-0.4168,0.0059,0.0216
0.73,10.0517,-0.1183,0.0201,-0.3701,-0.0301,0.0323
0.74,9.5263,-0.2261,0.0533,-0.3377,-0.0209,0.0061
0.75,9.6299,-0.0709,-0.0973,-0.2928,0.0091,-0.0153
0.76,9.4338,-0.0808,-0.1441,-0.2459,-0.0002,-0.0339
0.77,9.3127,-0.0389,-0.1391,-0.1562,0.0088,0.0208
0.78,9.309,0.0042,-0.1668,-0.0364,0.0335,-0.0359
0.79,9.1664,0.0397,-0.0297,0.0707,0.0145,-0.0068
0.8,9.3881,0.1672,-0.007,0.2122,0.0252,-0.0045
0.81,9.5642,0.1595,-0.0487,0.3371,0.0019,-0.0014
0.82,9.8217,0.0857,0.0219,0.3653,-0.0161,0.0007
0.83,9.8528,0.1431,-0.0033,0.404,-0.0012,0.0028
0.84,10.0262,0.1867,0.0152,0.4195,-0.0161,-0.0483
0.85,10.2357,0.1908,0.0315,0.3424,0.0312,0.0003
0.86,10.5058,0.1359,0.0565,0.3182,0.0158,-0.0446
0.87,10.5732,0.1506,0.012,0.2192,0.0104,0.0146
0.88,10.5665,-0.065,0.1119,0.0624,0.0247,-0.0111
0.89,10.654,-0.0204,0.097,-0.0667,-0.0404,-0.0431
0.9,10.5667,-0.1761,0.1278,-0.1564,0.0118,-0.0163
0.91,10.5292,-0.0971,0.0784,-0.2771,-0.0262,-0.0114
0.92,10.2451,-0.1775,0.0422,-0.3687,-0.0001,0.0238
0.93,10.0951,-0.1739,-0.0211,-0.3642,-0.0062,0.0039
0.94,9.8967,-0.2426,-0.0039,-0.3745,0.0132,0.0069
0.95,9.6223,-0.122,0.0001,-0.3688,0.0046,0.0236
0.96,9.5959,-0.1036,-0.1199,-0.3366,0.0269,-0.0019
0.97,9.4627,-0.0822,-0.0787,-0.2473,-0.012,0.0151
0.98,9.3606,-0.0635,-0.0842,-0.1119,0.0142,0.0137
0.99,9.3161,0.0315,-0.1359,-0.005,0.0032,-0.0257
1.0,9.2549,0.0265,-0.1245,0.1168,-0.0327,0.0295
1.01,9.4236,0.1583,-0.0701,0.2515,-0.0184,-0.0284
1.02,9.5668,0.2413,-0.1175,0.3323,-0.003,0.0183
1.03,9.7027,0.2413,-0.017,0.4031,0.0222,-0.0303
1.04,9.9468,0.1633,-0.0498,0.3797,0.0093,0.012
1.05,10.1878,0.2118,0.078,0.3806,-0.0234,0.0372
1.06,10.4876,0.1055,0.1694,0.3556,-0.0028,-0.0043
1.07,10.5011,0.1599,0.0324,0.2716,0.0404,-0.0051
1.08,10.6138,0.1031,0.1182,0.1918,0.0022,0.0122
1.09,10.6397,-0.0709,0.063,0.0536,-0.0065,-0.0066
1.1,10.4862,-0.0956,0.1503,-0.038,0.0098,0.0364
1.11,10.574,-0.1083,0.025,-0.1775,0.0153,0.0038
1.12,10.4657,-0.1574,0.0943,-0.2634,-0.0091,-0.0064
1.13,10.5013,-0.2381,0.0023,-0.3617,0.0101,-0.0108
1.14,10.1054,-0.1775,0.0072,-0.3935,-0.0066,-0.0187
1.15,9.9511,-0.1858,-0.0641,-0.3786,0.0144,-0.0126
1.16,9.7377,-0.1917,-0.0003,-0.3318,0.0034,-0.007
1.17,9.4848,-0.187,-0.1085,-0.2838,0.0096,-0.0098
1.18,9.5466,-0.0505,-0.0582,-0.2074,-0.0152,-0.0132
1.19,9.4426,0.0355,-0.1144,-0.0671,-0.0164,0.042
1.2,9.4299,-0.0116,-0.1055,-0.0187,0.0189,-0.0206
1.21,9.3367,0.0407,-0.086,0.1141,-0.0016,0.0029
1.22,9.6192,0.1481,-0.1167,0.2608,0.0057,0.0119
1.23,9.5386,0.1468,-0.0462,0.3297,-0.0061,0.0126
1.24,9.8747,0.184,0.0468,0.3941,0.018,-0.0012
1.25,10.1974,0.237,-0.0389,0.4013,-0.0122,-0.0048
1.26,10.1373,0.0955,0.0883,0.3934,-0.0027,0.009
1.27,10.3482,0.2306,0.1316,0.3131,0.0157,0.0053
1.28,10.5452,0.1272,0.0378,0.2586,0.0235,-0.0052
1.29,10.5944,0.0507,0.0207,0.1625,-0.0105,-0.0312
1.3,10.5534,0.0081,0.1149,0.0495,0.0392,-0.0094
1.31,10.667,-0.0492,0.0698,-0.0543,0.0063,-0.0229
1.32,10.5037,-0.1894,0.1792,-0.2009,-0.0209,-0.0133
1.33,10.5033,-0.0744,0.0683,-0.2929,0.0074,0.0007
1.34,10.2296,-0.18,0.0013,-0.3945,-0.0077,0.0072
1.35,10.2405,-0.1763,-0.0448,-0.4075,0.0087,0.0356
1.36,9.8599,-0.1493,0.037,-0.3977,-0.0009,-0.0107
1.37,9.713,-0.2287,-0.0745,-0.3342,0.0015,0.0155
1.38,9.6471,-0.1186,-0.0681,-0.2968,-0.0182,0.0061
1.39,9.368,-0.1075,-0.0404,-0.1724,0.0198,0.0259
1.4,9.4209,0.0049,-0.1224,-0.075,-0.0231,0.0115
1.41,9.5011,-0.0838,-0.1017,0.0416,-0.0222,-0.0202
1.42,9.32,0.0756,-0.0924,0.1661,0.0073,-0.0345
1.43,9.5692,0.1012,-0.0413,0.2548,0.0321,0.0062
1.44,9.7253,0.1918,-0.023,0.3318,-0.0071,-0.0106
1.45,9.9479,0.2172,-0.0359,0.3533,0.014,-0.0196
1.46,9.9819,0.1644,0.0082,0.3945,0.0215,-0.0254
1.47,10.1677,0.1521,0.0159,0.3659,0.0163,0.0032
1.48,10.4874,0.1533,-0.0131,0.3073,-0.0062,0.0302
1.49,10.606,0.0707,0.0945,0.2394,-0.0218,-0.0082
1.5,10.6909,0.1039,0.1897,0.1368,-0.0442,0.0118
1.51,10.7315,-0.0159,0.0558,0.0097,-0.0053,-0.002
1.52,10.6235,-0.2024,0.0572,-0.0941,0.0236,-0.0258
1.53,10.6145,-0.1301,0.0395,-0.2112,-0.0225,0.0147
1.54,10.4885,-0.2076,0.099,-0.3173,0.014,-0.0219
1.55,10.2403,-0.2675,0.0592,-0.3812,-0.019,0.0004
1.56,10.2574,-0.2613,-0.0004,-0.3926,0.0021,-0.0068
1.57,9.9524,-0.1894,-0.0683,-0.3783,0.0142,0.0179
1.58,9.6386,-0.1064,-0.0457,-0.3176,-0.0132,-0.0212
1.59,9.6354,-0.1194,-0.152,-0.2463,0.0034,0.0078
1.6,9.3972,-0.1155,-0.0833,-0.1811,-0.0083,-0.0168
1.61,9.4835,-0.0048,-0.0555,-0.0572,0.0141,-0.0102
1.62,9.5166,0.0096,-0.1612,0.0785,0.0047,-0.0727
1.63,9.4196,0.0549,-0.166,0.2007,0.0011,0.0418
1.64,9.6761,0.081,0.0069,0.2962,0.0312,0.011
1.65,9.7881,0.0877,-0.0788,0.3492,0.0132,-0.0153
1.66,10.0051,0.1765,0.0368,0.3669,-0.0138,-0.0225
1.67,10.2871,0.2069,0.0023,0.378,-0.0017,-0.0099
1.68,10.3058,0.1792,0.031,0.3735,-0.0015,0.0143
1.69,10.4323,0.1317,0.0866,0.3118,0.0016,-0.0378
1.7,10.5505,0.0599,0.0402,0.1924,0.0505,-0.0028
1.71,10.636,0.0826,0.1032,0.1052,0.0074,0.0354
1.72,10.7181,-0.0734,0.0809,-0.0025,-0.0407,-0.0227
1.73,10.7158,-0.0278,0.0283,-0.1562,-0.0109,0.0016
1.74,10.6196,-0.1697,0.097,-0.2171,-0.0386,0.0441
1.75,10.5255,-0.1994,0.0456,-0.3312,-0.0066,0.0126
1.76,10.2878,-0.2628,0.0242,-0.3537,-0.0397,0.0025
1.77,10.2116,-0.225,-0.058,-0.4105,-0.0174,0.0101
1.78,9.8812,-0.1436,0.0523,-0.4053,-0.0304,-0.008
1.79,9.9431,-0.1417,-0.0108,-0.3442,0.0077,0.026
1.8,9.6307,-0.0786,-0.0288,-0.2569,0.0,-0.008
1.81,9.4124,-0.0498,-0.1078,-0.1597,0.0061,-0.0392
1.82,9.3499,-0.0728,-0.1861,-0.0395,-0.0021,-0.0078
1.83,9.4872,0.0259,-0.0001,0.0915,-0.0279,-0.0193
1.84,9.5011,0.0595,-0.0901,0.1937,0.0103,-0.0056
1.85,9.6975,0.2123,-0.1059,0.2903,0.0384,-0.0052
1.86,9.8398,0.12,-0.0229,0.3256,0.0082,0.0239
1.87,9.9833,0.2424,0.0433,0.4033,-0.0085,0.0139
1.88,10.1174,0.2424,0.0139,0.3937,-0.0286,0.0053
1.89,10.2512,0.2714,0.1076,0.392,-0.0182,-0.0001
1.9,10.4982,0.1253,0.1226,0.2728,0.0091,-0.0212
1.91,10.7238,0.1342,0.0332,0.1609,0.0215,-0.0436
1.92,10.7427,0.1565,0.064,0.0972,0.0052,0.0023
1.93,10.6388,-0.0485,0.1475,-0.0282,0.016,0.0159
1.94,10.7068,-0.1527,-0.0431,-0.1721,0.0142,-0.0022
1.95,10.6239,-0.2215,0.0696,-0.2856,0.0101,-0.0107
1.96,10.3773,-0.1319,-0.0169,-0.3043,-0.0132,0.0093
1.97,10.2832,-0.2866,0.0035,-0.3565,0.0035,-0.0017
1.98,10.0825,-0.2186,-0.0175,-0.4496,-0.017,0.0337
1.99,9.7947,-0.1676,-0.05,-0.388,0.0003,0.0247
2.0,9.7419,-0.1525,-0.0864,-0.2903,0.0066,0.0192
2.01,9.6197,-0.0983,-0.135,-0.2487,0.0336,0.0152
2.02,9.5702,-0.0554,0.0203,-0.1429,-0.0262,-0.0258
2.03,9.5318,0.0564,-0.0066,-0.0207,0.0096,0.0133
2.04,9.3598,0.0046,-0.1546,0.0819,0.0296,0.0075
2.05,9.4742,0.0733,-0.0053,0.1802,0.0152,0.0121
2.06,9.7192,0.1139,-0.0847,0.326,0.0167,0.0099
2.07,9.8858,0.2256,-0.0327,0.3312,0.0118,0.0091
2.08,10.0756,0.244,-0.0132,0.4029,0.026,0.054
2.09,10.5381,0.2185,-0.013,0.4097,-0.0217,-0.0015
2.1,10.4594,0.2344,0.0974,0.3215,-0.0277,0.0187
2.11,10.6601,0.0798,0.0783,0.259,-0.0001,-0.0094
2.12,10.7588,0.173,0.0656,0.2036,-0.0432,0.0158
2.13,10.7954,0.1087,0.0334,0.0757,0.0246,0.0188
2.14,10.7209,0.0092,0.0544,-0.0675,0.0244,0.0073
2.15,10.7516,0.0039,0.0084,-0.1463,-0.0087,0.0334
2.16,10.5207,-0.2179,0.0744,-0.246,-0.0074,-0.0177
2.17,10.412,-0.199,-0.0095,-0.3402,-0.0014,-0.0097
2.18,10.2109,-0.2317,0.0091,-0.4078,0.001,0.0042
2.19,10.0619,-0.1634,0.061,-0.4071,0.0025,0.0176
2.2,10.0506,-0.2385,0.0232,-0.3662,0.0112,0.0036
2.21,9.5477,-0.1178,-0.0644,-0.3152,-0.0035,0.0257
2.22,9.6204,-0.0428,-0.0874,-0.204,0.0189,-0.0132
2.23,9.3536,-0.0222,-0.0019,-0.1446,0.0089,-0.0228
2.24,9.4183,0.0167,-0.074,-0.0249,-0.0121,0.0062
2.25,9.5752,0.0124,-0.1115,0.1272,0.0267,-0.0015
2.26,9.5811,0.0732,-0.1529,0.2212,-0.0272,0.0109
2.27,9.6255,0.2213,-0.0411,0.3051,-0.0018,-0.0005
2.28,9.8259,0.2267,0.007,0.3401,0.0193,-0.0068
2.29,10.1291,0.1978,-0.0366,0.3999,-0.0145,-0.0015
2.3,10.2109,0.1728,0.0394,0.3864,0.0062,0.0006
2.31,10.4665,0.0689,0.0343,0.3535,0.0109,-0.0061
2.32,10.602,0.0778,0.0662,0.264,-0.0172,-0.0041
2.33,10.6511,0.1762,-0.0329,0.1585,-0.0014,-0.0081
2.34,10.9258,-0.0415,0.0883,0.0687,-0.0031,0.0171
2.35,10.7979,-0.028,0.1467,-0.1012,-0.011,0.0039
2.36,10.5203,-0.0438,0.0567,-0.1776,0.046,0.0451
2.37,10.5806,-0.2051,0.0729,-0.318,-0.0153,0.0032
2.38,10.3549,-0.1684,0.0082,-0.372,0.0201,-0.011
2.39,10.2912,-0.15,0.0355,-0.4181,-0.0079,0.0534
2.4,9.9645,-0.1978,-0.0234,-0.3812,-0.0217,0.0083
2.41,9.831,-0.0386,-0.0884,-0.3654,0.0021,0.0198
2.42,9.7171,-0.2326,0.0,-0.2986,0.013,0.0118
2.43,9.6216,-0.05,-0.0393,-0.2279,0.0184,0.0125
2.44,9.3822,-0.0559,-0.1274,-0.1006,0.0312,0.0107
2.45,9.4344,0.0512,-0.0749,0.0098,0.0589,-0.022
2.46,9.4646,0.0933,-0.0666,0.1502,0.005,0.0074
2.47,9.5466,0.0869,-0.0465,0.2273,-0.0133,-0.0265
2.48,9.8825,0.1762,-0.1414,0.356,0.0091,-0.0035
2.49,9.9493,0.0981,0.0206,0.3484,-0.0053,-0.0145
2.5,10.0091,0.2302,-0.0285,0.3839,0.0185,0.0071
2.51,10.3765,0.2059,0.0118,0.4155,-0.0259,0.0067
2.52,10.6485,0.1966,0.1886,0.3207,0.0474,0.0096
2.53,10.7036,0.1765,0.0937,0.2208,0.0171,0.0057
2.54,10.5957,0.0897,0.0741,0.1469,-0.0337,-0.0121
2.55,10.7198,0.02,-0.0105,0.0156,-0.0142,-0.0052
2.56,10.8427,-0.0914,0.1667,-0.1113,0.0163,0.0184
2.57,10.6105,-0.1385,0.0185,-0.2277,0.0235,0.0214
2.58,10.578,-0.0899,0.0164,-0.243,-0.0254,-0.0229
2.59,10.4408,-0.1102,0.0249,-0.3691,0.0143,-0.0306
2.6,10.1167,-0.2103,0.0834,-0.4354,-0.0389,-0.0145
2.61,9.9908,-0.1946,0.0212,-0.364,-0.0018,0.0209
2.62,9.5511,-0.2229,-0.0538,-0.343,0.0222,0.0243
2.63,9.5703,-0.0837,-0.0549,-0.2999,-0.011,-0.0185
2.64,9.5151,-0.0609,-0.1182,-0.2069,-0.0301,0.0061
2.65,9.3704,0.0596,-0.0912,-0.0615,0.0029,0.0367
2.66,9.5932,-0.0213,-0.0957,0.0402,-0.0121,0.0083
2.67,9.399,0.0617,-0.0431,0.1226,0.0126,0.0284
2.68,9.5826,0.1429,-0.0271,0.2984,-0.0177,0.02
2.69,9.777,0.2025,-0.0278,0.3317,-0.0155,-0.0182
2.7,10.0613,0.1829,-0.043,0.4173,-0.0404,-0.0038
2.71,10.0252,0.1561,0.0421,0.4251,0.0034,0.0007
2.72,10.4242,0.2318,0.0299,0.3555,-0.0032,0.0021
2.73,10.5028,0.1949,0.0067,0.3383,-0.0238,0.0183
2.74,10.5587,0.0697,0.0615,0.218,0.0039,0.0082
2.75,10.7615,0.1296,0.0993,0.0863,0.0205,-0.0587
2.76,10.7719,0.061,0.1455,-0.0035,-0.0043,-0.0263
2.77,10.6807,-0.0503,0.0867,-0.1061,0.0054,-0.0437
2.78,10.6508,-0.1074,0.0226,-0.232,0.0055,0.0035
2.79,10.4822,-0.128,0.0656,-0.3175,-0.0241,0.0048
2.8,10.353,-0.229,0.0425,-0.349,0.0411,0.0057
2.81,10.2063,-0.1979,0.0168,-0.3967,-0.0094,-0.0192
2.82,10.0851,-0.3025,0.0236,-0.4067,0.0131,0.0135
2.83,9.6772,-0.129,0.0006,-0.3315,0.0154,0.0143
2.84,9.7944,-0.2131,-0.1035,-0.2662,-0.0028,-0.0251
2.85,9.3585,-0.01,-0.1213,-0.2207,0.0121,-0.0293
2.86,9.4464,-0.0441,-0.1511,-0.0465,0.0049,-0.0
2.87,9.5076,0.0219,-0.0637,0.0729,-0.0284,0.0358
2.88,9.543,0.0583,-0.0169,0.1798,-0.0066,0.034
2.89,9.583,0.1243,-0.0878,0.2953,-0.0123,0.0113
2.9,9.7708,0.2462,-0.0602,0.3371,-0.0092,-0.0146
2.91,9.9308,0.0716,0.0534,0.3987,-0.0261,0.0177
2.92,10.1177,0.2628,0.0353,0.3666,0.0225,-0.009
2.93,10.4215,0.2009,0.0609,0.3762,0.032,-0.0154
2.94,10.5478,0.0921,0.0052,0.344,0.0196,-0.0429
2.95,10.5915,0.0534,0.1184,0.1944,0.0254,0.002
2.96,10.797,0.136,0.0501,0.0891,-0.0069,-0.0126
2.97,10.7711,-0.0548,0.0432,-0.0293,-0.0127,0.0019
2.98,10.7744,-0.1242,0.077,-0.1305,-0.0156,-0.046
2.99,10.6673,-0.0627,0.0509,-0.2604,0.0129,0.0034
3.0,10.4111,-0.1449,0.0477,-0.3152,0.0045,-0.0486
3.01,10.2585,-0.2363,-0.04,-0.3619,-0.0015,0.0218
3.02,10.1702,-0.1891,0.0505,-0.3892,0.0259,0.0104
3.03,9.9649,-0.2437,0.0291,-0.4202,0.0081,-0.0056
3.04,9.7361,-0.1125,-0.152,-0.3151,-0.0168,0.0113
3.05,9.6008,-0.0744,-0.0281,-0.2362,-0.0136,-0.0196
3.06,9.5925,-0.0494,-0.133,-0.1353,0.0136,0.0014
3.07,9.3962,0.0005,-0.0568,-0.0277,0.0208,0.0159
3.08,9.4988,0.1305,-0.1011,0.0892,0.011,-0.0619
3.09,9.5078,0.0985,-0.0856,0.2177,0.0379,-0.0089
3.1,9.6266,0.0867,-0.0777,0.3301,0.0327,-0.0005
3.11,9.892,0.2024,0.0169,0.3407,0.0088,-0.0039
3.12,10.0559,0.302,-0.077,0.417,-0.0168,0.0291
3.13,10.2495,0.147,0.0454,0.3937,-0.0262,-0.0225
3.14,10.4746,0.1618,0.0988,0.3572,-0.0077,-0.0124
3.15,10.532,0.1666,0.1043,0.2609,0.0151,-0.0383
3.16,10.7047,0.0959,0.2033,0.1914,0.0365,0.0302
3.17,10.6942,-0.0067,0.0713,0.0649,0.0083,-0.0049
3.18,10.7565,0.0385,0.1475,-0.0444,0.0234,-0.0088
3.19,10.6731,0.04,0.0872,-0.1739,-0.0049,-0.001
3.2,10.59,-0.1177,0.1387,-0.2639,0.0125,0.0127
3.21,10.4834,-0.2127,0.0543,-0.3431,0.0165,0.0069
3.22,10.1918,-0.2699,0.0079,-0.3829,-0.0396,0.053
3.23,10.23,-0.187,0.0628,-0.4322,-0.0083,0.0091
3.24,9.7891,-0.1342,-0.0567,-0.4077,0.019,-0.0093
3.25,9.5981,-0.138,-0.1294,-0.3164,0.0055,-0.0112
3.26,9.6481,-0.1197,-0.106,-0.2551,-0.0239,-0.0079
3.27,9.526,-0.096,-0.0633,-0.1116,-0.0486,-0.03
3.28,9.4751,-0.0621,-0.0303,-0.0106,-0.0073,0.0008
3.29,9.4966,0.0939,-0.091,0.1165,-0.0014,0.0157
3.3,9.5231,0.1529,-0.0185,0.2425,-0.0177,-0.0123
3.31,9.5796,0.0752,-0.1326,0.2988,0.0029,-0.0161
3.32,9.8227,0.2635,-0.0613,0.3566,0.0101,0.0303
3.33,9.9507,0.2277,-0.0245,0.4154,0.0134,-0.0285
3.34,10.277,0.266,0.0142,0.4021,-0.0471,-0.0414
3.35,10.3696,0.1082,0.0524,0.3468,-0.0263,-0.0231
3.36,10.4694,0.0704,0.1066,0.3053,-0.0061,-0.0308
3.37,10.6216,0.0822,0.0671,0.1751,0.0114,0.0077
3.38,10.7397,0.0577,0.1056,0.0657,0.0098,-0.0072
3.39,10.663,0.0623,0.0968,-0.0547,0.0094,-0.0044
3.4,10.5857,-0.0499,0.0442,-0.189,-0.0077,0.0231
3.41,10.5612,-0.1472,0.0681,-0.2686,-0.0066,-0.0138
3.42,10.4082,-0.2241,0.0432,-0.3176,-0.0146,0.0155
3.43,10.1654,-0.1334,0.0142,-0.3809,0.0154,0.0302
3.44,9.9725,-0.2477,-0.0059,-0.3982,-0.0184,-0.0091
3.45,9.8374,-0.1045,-0.033,-0.3751,0.017,0.0147
3.46,9.5332,-0.1699,-0.0844,-0.3048,0.0042,-0.0048
3.47,9.4035,-0.0318,-0.0194,-0.2078,-0.0009,0.0185
3.48,9.3744,-0.0231,-0.1543,-0.1018,-0.0131,-0.0314
3.49,9.3868,-0.0043,-0.136,-0.0016,-0.0271,-0.0329
3.5,9.4594,0.0358,0.0439,0.1301,-0.013,-0.0078
3.51,9.639,0.0985,-0.1335,0.2406,-0.0066,-0.0178
3.52,9.7239,0.1802,-0.1285,0.2975,-0.0474,-0.0103
3.53,9.8125,0.1916,0.0023,0.3789,-0.0039,-0.0044
3.54,10.014,0.1701,-0.1089,0.3563,0.0185,0.0144
3.55,10.1285,0.1854,0.0131,0.3971,0.0113,-0.0082
3.56,10.3858,0.1741,0.1598,0.3536,-0.0099,-0.0165
3.57,10.5119,0.0249,-0.0018,0.2776,0.0009,-0.007
3.58,10.6643,0.1035,-0.0076,0.1533,-0.0111,-0.0154
3.59,10.622,-0.0264,0.0244,0.0513,0.003,-0.0187
3.6,10.7212,-0.0951,0.1431,-0.0465,0.0308,-0.0323
3.61,10.7361,-0.1785,0.1445,-0.16,0.0194,0.0014
3.62,10.4868,-0.232,0.0446,-0.2852,0.0104,-0.0114
3.63,10.3684,-0.2454,0.0801,-0.3525,-0.0099,0.0193
3.64,10.2053,-0.2324,0.087,-0.3716,0.015,-0.0289
3.65,9.9215,-0.1008,0.0768,-0.4269,-0.0337,-0.0108
3.66,9.7824,-0.2083,-0.0538,-0.3705,-0.005,0.0363
3.67,9.6006,-0.1403,-0.1817,-0.2717,0.0117,-0.0188
3.68,9.4817,-0.0829,-0.1268,-0.1863,0.0148,-0.0047
3.69,9.3366,-0.0407,-0.1185,-0.0872,0.0134,-0.0243
3.7,9.3819,0.0087,-0.1127,-0.005,0.0059,-0.027
3.71,9.4599,0.0115,-0.1028,0.1416,-0.0039,0.0309
3.72,9.6311,0.1961,-0.0227,0.2353,0.0108,0.0034
3.73,9.7328,0.2551,0.007,0.336,-0.0191,0.0027
3.74,10.0026,0.1068,-0.0383,0.3658,-0.0169,-0.0339
3.75,9.9607,0.1488,0.0549,0.3795,0.0012,0.0072
3.76,10.2837,0.177,0.0476,0.3406,0.0035,0.0231
3.77,10.4028,0.1165,0.06,0.3538,-0.0365,0.023
3.78,10.7044,0.1489,0.124,0.2391,0.0091,0.0134
3.79,10.5594,0.0349,0.097,0.1457,0.0155,-0.0226
3.8,10.5969,0.1208,0.2027,0.0251,-0.0015,0.0063
3.81,10.5976,0.0122,0.0252,-0.1159,0.0475,0.0134
3.82,10.4001,-0.0923,0.06,-0.231,-0.0137,-0.0359
3.83,10.4021,-0.0978,0.0603,-0.3185,-0.0072,-0.0224
3.84,10.2184,-0.1267,0.0634,-0.3785,-0.0079,0.0178
3.85,10.1019,-0.2266,0.0759,-0.3895,-0.0015,0.0175
3.86,9.9206,-0.2377,-0.0187,-0.4097,-0.0066,-0.031
3.87,9.8569,-0.1737,-0.1171,-0.3203,-0.0281,0.0159
3.88,9.6234,-0.0992,-0.0281,-0.2641,-0.0109,0.0019
3.89,9.383,-0.0872,-0.0505,-0.1721,-0.002,0.0156
3.9,9.2909,-0.1163,-0.1953,-0.0773,0.0246,-0.0127
3.91,9.3933,-0.0176,-0.0996,0.0754,0.044,0.0129
3.92,9.2978,0.0769,-0.171,0.1568,0.0267,0.0169
3.93,9.6531,0.1275,-0.1087,0.262,-0.0155,-0.007
3.94,9.7483,0.2688,-0.0977,0.3438,-0.0139,0.0004
3.95,9.7947,0.1244,0.0156,0.4015,-0.0032,-0.013
3.96,9.888,0.225,0.0109,0.4122,0.0357,0.033
3.97,10.3232,0.2622,-0.0298,0.366,-0.0033,-0.0024
3.98,10.3754,0.2724,0.1048,0.3069,-0.0266,-0.0184
3.99,10.6175,0.0953,0.0099,0.2438,-0.01,-0.0143
4.0,10.477,0.0864,0.1116,0.1379,0.0151,0.0025
4.01,10.5868,0.031,0.0593,-0.0028,0.0138,0.0151
4.02,10.6067,-0.0472,0.0776,-0.1458,-0.004,-0.0267
4.03,10.5254,-0.1163,0.1083,-0.2269,0.0137,0.037
4.04,10.3522,-0.1339,0.0888,-0.2989,-0.0455,0.0062
4.05,10.2677,-0.3126,0.1037,-0.3358,0.0021,0.0093
4.06,9.9406,-0.1653,0.0034,-0.4228,0.0172,-0.0019
4.07,9.8183,-0.1886,-0.0071,-0.3983,-0.0167,0.0004
4.08,9.6562,-0.1839,-0.0722,-0.3534,-0.0167,-0.003
4.09,9.5341,-0.0327,-0.0647,-0.243,-0.0373,0.0204
4.1,9.4395,-0.1189,-0.0685,-0.171,0.0318,-0.0002
4.11,9.2354,-0.0477,-0.104,-0.0733,-0.0144,0.0153
4.12,9.2035,0.1321,-0.1889,0.0762,0.0048,-0.0087
4.13,9.4872,0.0481,-0.0728,0.1713,0.0121,0.0039
4.14,9.5227,0.1112,-0.0538,0.253,0.0302,-0.0161
4.15,9.5897,0.1679,-0.0822,0.3327,-0.0031,0.0243
4.16,9.9554,0.238,-0.0842,0.4266,-0.0108,-0.0167
4.17,10.0339,0.2094,0.0838,0.4057,0.0035,-0.0065
4.18,10.3066,0.1194,0.0637,0.3702,0.0257,-0.0063
4.19,10.3822,0.1259,0.0533,0.3,-0.0034,-0.0071
4.2,10.6682,0.0768,0.0276,0.2202,-0.0191,0.0144
4.21,10.7208,0.0483,0.0554,0.1099,-0.0308,-0.0063
4.22,10.5808,0.0138,0.1651,-0.0092,-0.0244,0.0279
4.23,10.6402,-0.0457,0.1012,-0.1308,0.0173,-0.0164
4.24,10.5205,-0.2084,0.0526,-0.2218,-0.0064,0.0034
4.25,10.4377,-0.1086,0.0843,-0.3231,-0.0122,-0.0155
4.26,10.0759,-0.1768,-0.0086,-0.3984,-0.0143,0.0084
4.27,10.014,-0.1307,0.0776,-0.4121,0.0017,-0.0003
4.28,9.8484,-0.1702,0.0403,-0.4244,-0.0048,-0.0031
4.29,9.4436,-0.1124,-0.078,-0.2945,-0.0055,0.0238
4.3,9.3422,-0.1042,-0.1085,-0.2377,0.027,-0.0131
4.31,9.1716,-0.0086,-0.2234,-0.1685,0.0308,0.0117
4.32,9.2653,0.0085,-0.1737,-0.0408,-0.0322,-0.0154
4.33,9.3548,0.0375,-0.1647,0.0721,0.0066,0.0023
4.34,9.4854,0.2122,-0.0803,0.2279,-0.0155,-0.0239
4.35,9.4901,0.1902,-0.0848,0.2632,-0.005,-0.0133
4.36,9.7736,0.2086,-0.111,0.3621,0.0062,-0.0016
4.37,9.7176,0.1339,-0.0291,0.3933,-0.0043,0.0363
4.38,9.8853,0.1333,0.0403,0.412,0.0046,0.002
4.39,10.2019,0.1945,0.0701,0.3577,0.0135,0.0331
4.4,10.3961,0.1531,-0.0265,0.2564,0.0059,0.0044
4.41,10.4817,0.0678,0.0806,0.1921,-0.0129,-0.0077
4.42,10.3868,0.0495,0.0286,0.0654,-0.0126,0.0308
4.43,10.5555,0.0619,0.1447,-0.0335,-0.0288,0.0087
4.44,10.4103,-0.0412,0.1317,-0.1232,-0.0171,-0.0129
4.45,10.466,-0.1845,0.0321,-0.2898,0.0392,0.0094
4.46,10.2943,-0.1731,0.0163,-0.351,-0.0158,-0.0059
4.47,10.0103,-0.2327,0.0042,-0.3959,-0.0239,-0.0398
4.48,9.8488,-0.2193,-0.1152,-0.4075,0.0064,0.0187
4.49,9.6111,-0.2101,-0.0153,-0.364,-0.0022,0.0219
4.5,9.5156,-0.1857,-0.0724,-0.3271,-0.0039,0.0368
4.51,9.4563,-0.1823,-0.0316,-0.2308,0.0282,0.0084
4.52,9.2073,-0.0729,-0.1492,-0.1456,0.011,-0.005
4.53,9.2881,-0.0356,-0.1309,-0.0105,-0.0106,0.0167
4.54,9.2256,-0.0943,-0.1719,0.1199,-0.0085,0.017
4.55,9.2815,0.2098,-0.1346,0.1997,-0.0101,0.0328
4.56,9.4627,0.2069,-0.1238,0.3206,0.0175,-0.0009
4.57,9.5529,0.1652,0.0107,0.3691,-0.0062,-0.0033
4.58,9.7787,0.1999,-0.0449,0.4189,-0.0359,-0.0143
4.59,9.9204,0.1374,0.0262,0.3879,-0.001,0.0107
4.6,10.3549,0.26,0.0291,0.3581,-0.0307,-0.031
4.61,10.3538,0.2336,0.0086,0.2766,0.0437,0.0155
4.62,10.406,0.0975,0.081,0.1774,-0.0193,0.0118
4.63,10.5376,0.0837,0.1286,0.0702,-0.0032,0.0117
4.64,10.5121,-0.0188,0.0387,-0.0444,0.0052,0.0028
4.65,10.4459,-0.152,0.1309,-0.1953,-0.0058,0.0307
4.66,10.4021,-0.1557,0.0313,-0.2415,-0.0058,0.0174
4.67,10.2597,-0.1662,0.0262,-0.3828,0.0084,-0.0121
4.68,9.9732,-0.2176,0.049,-0.4035,0.0305,-0.0118
4.69,9.773,-0.2104,-0.0407,-0.4007,0.0154,-0.0176
4.7,9.6049,-0.1905,-0.0349,-0.3637,0.0296,0.011
4.71,9.2722,-0.1597,-0.0785,-0.2799,-0.0209,-0.02
4.72,9.2014,-0.1088,-0.0766,-0.2599,0.0063,0.0217
4.73,9.347,-0.11,-0.2149,-0.1242,0.0031,0.0265
4.74,9.3404,-0.0333,-0.1915,-0.0375,0.007,-0.0176
4.75,9.2188,-0.0024,-0.0643,0.1242,0.0275,-0.0037
4.76,9.3706,0.1644,-0.0298,0.2365,-0.0044,0.0003
4.77,9.4829,0.0535,-0.1063,0.3494,-0.0081,0.0177
4.78,9.8736,0.2454,-0.0467,0.3779,0.0107,0.0322
4.79,9.9064,0.2691,0.0097,0.4204,-0.0356,-0.0337
4.8,9.999,0.1786,0.0595,0.3991,-0.0047,-0.0064
4.81,10.1106,0.04,-0.0489,0.3317,-0.0027,-0.0053
4.82,10.2056,0.1133,0.0311,0.2345,-0.0184,-0.028
4.83,10.4532,0.0774,0.0749,0.1667,0.0211,-0.0097
4.84,10.4254,-0.028,0.1345,0.0153,-0.0212,0.0086
4.85,10.3629,-0.0632,0.2232,-0.049,-0.0027,-0.0056
4.86,10.3581,-0.0176,0.0768,-0.1915,0.0059,-0.0309
4.87,10.2047,-0.1091,-0.0001,-0.2607,0.0271,0.0575
4.88,10.2663,-0.2239,0.0661,-0.3649,-0.0002,0.0053
4.89,10.015,-0.2768,0.0836,-0.3884,0.0187,0.0022
4.9,9.7467,-0.2148,-0.0071,-0.3927,0.014,-0.022
4.91,9.676,-0.1927,-0.0868,-0.3649,0.0025,0.0052
4.92,9.3984,-0.1244,-0.0187,-0.307,-0.0218,-0.0033
4.93,9.1969,-0.1297,-0.0526,-0.1979,-0.0287,-0.0378
4.94,9.3116,-0.0217,-0.1485,-0.1131,0.0021,-0.0214
4.95,9.2138,0.1093,-0.0807,0.0009,-0.0109,0.0159
4.96,9.1272,0.1121,-0.0436,0.1674,0.0184,0.0389
4.97,9.2893,0.1212,-0.0195,0.2617,0.0149,0.0073
4.98,9.375,0.1555,-0.06,0.3307,-0.0037,0.0221
4.99,9.5082,0.1731,-0.0476,0.4152,-0.0232,-0.0031
5.0,9.8841,0.259,0.0614,0.3946,0.0102,-0.0017
5.01,10.1539,0.1596,-0.0308,0.4084,-0.0204,0.0218
5.02,10.0631,0.167,0.0787,0.3329,-0.0152,0.0333
5.03,10.3605,0.1261,0.0101,0.2266,-0.0196,0.026
5.04,10.3577,0.0462,0.1467,0.1795,-0.0028,-0.0213
5.05,10.4103,-0.0561,0.0869,0.0449,0.0234,-0.0013
5.06,10.3829,-0.0312,0.1606,-0.097,-0.0001,0.0056
5.07,10.2851,-0.1059,0.1103,-0.1912,-0.0089,-0.0052
5.08,10.2317,-0.1242,0.0054,-0.3065,-0.0305,0.0078
5.09,9.9959,-0.2087,0.1127,-0.3475,0.011,0.0164
5.1,9.8943,-0.1374,0.0901,-0.4447,-0.0156,0.0201
5.11,9.6715,-0.2408,0.0266,-0.4142,0.0024,0.0337
5.12,9.4696,-0.092,-0.084,-0.3357,-0.0071,-0.0066
5.13,9.2562,-0.2297,-0.0856,-0.2896,0.0168,-0.0273
5.14,9.164,-0.0724,-0.081,-0.1841,-0.0031,0.0072
5.15,9.2037,-0.0137,-0.1334,-0.1019,-0.0012,0.0377
5.16,9.1741,-0.0172,-0.0147,0.0821,0.0097,-0.0095
5.17,9.1049,0.1018,-0.0843,0.185,0.0421,0.0137
5.18,9.2938,0.1953,-0.2106,0.2586,0.0178,0.0139
5.19,9.493,0.0594,-0.0355,0.3323,-0.0018,0.0038
5.2,9.4772,0.2189,-0.0423,0.408,0.0001,0.0001
5.21,9.8467,0.0751,0.0013,0.4391,-0.0105,-0.0185
5.22,9.9397,0.1395,0.016,0.3946,-0.019,-0.0456
5.23,10.2076,0.2403,0.1011,0.361,-0.0111,-0.0222
5.24,10.2345,0.0864,0.1376,0.2126,-0.0154,-0.0078
5.25,10.2369,0.0031,0.1093,0.1072,0.0131,0.0219
5.26,10.281,-0.0074,0.083,-0.0188,-0.0214,-0.0021
5.27,10.3862,0.0464,0.0938,-0.1052,0.0267,-0.0104
5.28,10.3182,-0.203,0.084,-0.2192,0.015,-0.0178
5.29,10.0913,-0.2083,0.0226,-0.3144,0.0004,0.0131
5.3,10.0442,-0.1111,0.0658,-0.3557,0.0,0.0272
5.31,9.668,-0.1065,0.0305,-0.3742,-0.0111,0.0213
5.32,9.599,-0.2001,0.0546,-0.4203,0.0054,0.0121
5.33,9.324,-0.2347,0.0124,-0.3575,0.0218,-0.0295
5.34,9.2149,-0.0303,-0.108,-0.2537,-0.0141,-0.007
5.35,9.1602,-0.0054,-0.0495,-0.1797,-0.0307,0.0389
5.36,9.0301,0.0064,-0.1466,-0.0711,0.0141,0.0224
5.37,9.0688,-0.0081,-0.0639,0.0854,0.0065,-0.0308
5.38,9.2386,0.0872,-0.1152,0.1536,-0.0224,-0.0011
5.39,9.2229,0.1307,-0.1232,0.2714,-0.0147,0.0073
5.4,9.4891,0.1918,-0.0342,0.3571,-0.0172,-0.0152
5.41,9.5134,0.2685,-0.1537,0.3805,-0.0145,-0.0462
5.42,9.8394,0.243,-0.0775,0.4136,-0.0065,0.002
5.43,10.0996,0.1302,0.0303,0.3567,-0.0053,-0.0158
5.44,9.951,0.2213,0.0688,0.3331,-0.013,-0.0157
5.45,10.2114,0.1228,0.066,0.2118,-0.0152,-0.0071
5.46,10.3982,0.0865,0.0176,0.1178,-0.0046,-0.0027
5.47,10.356,0.0658,0.059,-0.0002,0.0034,-0.0002
5.48,10.3635,-0.1221,0.1139,-0.1457,-0.0063,-0.0177
5.49,10.1918,-0.1214,0.1092,-0.2802,0.0232,-0.0044
5.5,10.1063,-0.1884,0.058,-0.3164,0.0102,-0.0351
5.51,9.9117,-0.2678,0.0899,-0.3774,-0.0318,0.0062
5.52,9.8235,-0.1826,0.0224,-0.3888,0.0105,-0.0571
5.53,9.5549,-0.0668,-0.0647,-0.3893,0.0121,-0.0058
5.54,9.382,-0.2595,-0.0687,-0.3436,-0.0087,0.0184
5.55,9.1746,-0.1291,-0.1472,-0.2148,-0.0299,-0.0212
5.56,9.0663,-0.0439,-0.0979,-0.1814,0.0002,0.0143
5.57,9.0227,-0.0114,-0.044,-0.0205,-0.0002,0.0231
5.58,9.0994,0.0367,-0.0635,0.0733,-0.0224,-0.0662
5.59,9.102,0.0336,-0.0169,0.1904,-0.029,-0.003
5.6,9.2778,0.1574,-0.0836,0.2852,-0.0018,-0.0575
5.61,9.5797,0.142,0.0236,0.3437,-0.0047,-0.0024
5.62,9.6681,0.0882,-0.0247,0.4069,-0.0083,-0.0001
5.63,9.7659,0.2575,0.0886,0.4233,-0.0017,-0.0497
5.64,10.0728,0.2278,0.0426,0.3692,-0.0221,0.0385
5.65,10.1032,0.1484,0.1038,0.2937,-0.0087,0.0057
5.66,10.0917,0.11,0.1608,0.1774,0.0107,-0.017
5.67,10.242,0.0961,0.0881,0.0951,-0.007,0.0293
5.68,10.1835,-0.0064,0.1105,0.008,-0.0334,-0.0359
5.69,10.2572,-0.0308,0.157,-0.1595,-0.0095,-0.0246
5.7,10.1846,-0.1424,0.0704,-0.2625,-0.0214,-0.046
5.71,10.1698,-0.1019,-0.0114,-0.3462,0.0053,0.036
5.72,9.8824,-0.1764,0.1344,-0.3946,0.0064,0.0066
5.73,9.6433,-0.1902,-0.026,-0.4548,-0.0332,0.0132
5.74,9.5332,-0.2529,-0.0242,-0.3707,0.0152,0.006
5.75,9.1149,-0.1475,-0.001,-0.3405,-0.0222,0.0115
5.76,9.17,-0.1612,-0.1106,-0.2714,0.0312,0.0016
5.77,9.1192,-0.0985,-0.1447,-0.1181,-0.001,0.0054
5.78,8.901,-0.0483,-0.0872,-0.0367,-0.0249,0.0022
5.79,9.1311,-0.0011,-0.1862,0.0976,-0.0228,-0.0122
5.8,9.1437,0.2134,-0.0988,0.2437,0.007,-0.0009
5.81,9.21,0.2191,-0.0525,0.2768,-0.0078,0.0055
5.82,9.4584,0.2801,-0.0526,0.3374,-0.0019,0.0022
5.83,9.777,0.1378,-0.0872,0.4034,0.0323,-0.0296
5.84,9.8033,0.1995,0.0997,0.4149,-0.014,-0.0269
5.85,9.9903,0.1106,0.0534,0.319,0.0012,0.0217
5.86,10.0871,0.1039,0.1436,0.2856,0.0284,-0.0061
5.87,10.1671,0.0438,0.0764,0.191,0.0054,0.0117
5.88,10.3602,0.0945,0.0547,0.0239,-0.0321,-0.0218
5.89,10.2262,-0.0474,0.1125,-0.0391,0.0101,-0.0295
5.9,10.2431,-0.0317,0.0797,-0.1528,-0.0233,-0.0169
5.91,10.0888,-0.1049,0.0149,-0.2764,0.0281,-0.0045
5.92,10.0118,-0.0576,0.1239,-0.3205,-0.0165,-0.0133
5.93,9.817,-0.2689,-0.0087,-0.3671,0.0594,0.0259
5.94,9.677,-0.1365,-0.0995,-0.3968,0.0293,0.0036
5.95,9.3613,-0.1286,0.0296,-0.3809,-0.0159,0.037
5.96,9.2102,-0.2044,-0.088,-0.3308,0.0004,0.0081
5.97,9.0201,-0.061,-0.1135,-0.2235,0.0151,-0.0483
5.98,8.9781,-0.0402,-0.1841,-0.1026,0.0157,0.0211
5.99,9.0154,-0.0089,-0.0129,-0.0015,0.0088,-0.0302
6.0,9.076,0.0206,-0.1596,0.0797,0.025,0.0046
6.01,9.0277,0.0796,-0.0787,0.2564,-0.0025,-0.0155
6.02,9.305,0.2613,-0.0152,0.3214,-0.0073,0.0429
6.03,9.5136,0.1878,-0.0134,0.3679,-0.0069,0.0288
6.04,9.628,0.2389,-0.008,0.4166,0.0172,-0.0148
6.05,9.9379,0.1542,-0.0602,0.4179,0.0073,-0.0025
6.06,9.9041,0.1312,0.012,0.2844,0.0058,0.0049
6.07,10.0139,0.1854,0.0848,0.2713,0.0159,0.0173
6.08,10.0743,0.0131,0.0522,0.1326,-0.041,0.0006
6.09,10.3858,0.0018,0.1095,0.0551,0.0062,-0.0205
6.1,10.3096,-0.0358,0.1323,-0.0724,0.0044,-0.0144
6.11,10.1864,-0.0886,0.1364,-0.1756,0.0334,-0.0001
6.12,10.095,-0.1513,0.009,-0.2946,-0.0306,0.0247
6.13,9.8231,-0.1578,0.1558,-0.3927,0.0311,0.0086
6.14,9.9224,-0.1623,0.0559,-0.4028,0.0015,-0.0155
6.15,9.5405,-0.1617,-0.0126,-0.3887,0.0098,0.013
6.16,9.3496,-0.2313,0.013,-0.3437,0.0335,-0.0077
6.17,9.2339,-0.1634,0.0517,-0.3218,0.0112,0.0178
6.18,9.0885,-0.0431,-0.1577,-0.1852,0.008,0.0505
6.19,8.9924,-0.0026,-0.1084,-0.1076,0.0048,-0.0072
6.2,8.8927,-0.0561,-0.2187,0.0324,-0.0097,0.016
6.21,9.0337,0.0889,-0.0838,0.1324,-0.0006,-0.0149
6.22,9.2414,0.0247,-0.0604,0.2508,-0.0143,-0.0022
6.23,9.3395,0.1671,-0.0587,0.3473,-0.0009,0.0006
6.24,9.5336,0.2859,-0.0624,0.3574,-0.0467,-0.0039
6.25,9.557,0.1526,-0.1025,0.3864,0.0086,0.0493
6.26,9.7104,0.1493,0.0484,0.3856,-0.0024,-0.0061
6.27,9.9539,0.2029,0.1295,0.3774,-0.0067,0.0117
6.28,10.1095,0.0464,0.0491,0.2299,0.0044,-0.0386
6.29,10.2875,0.0396,0.1154,0.1834,-0.0287,0.0086
6.3,10.1046,0.0424,0.0214,0.0652,0.0386,0.0228
6.31,10.3439,-0.079,0.12,-0.0965,-0.0021,-0.0106
6.32,10.1335,-0.1147,0.0661,-0.2117,-0.0029,-0.0502
6.33,9.9862,-0.112,0.0285,-0.3122,-0.0193,-0.0008
6.34,9.7746,-0.1609,0.0034,-0.3654,0.0005,0.0003
6.35,9.534,-0.1851,-0.0071,-0.425,0.0277,0.0145
6.36,9.5358,-0.2139,0.0016,-0.3954,0.0207,0.0402
6.37,9.2896,-0.1591,-0.1116,-0.3253,0.0171,-0.0076
6.38,9.0213,-0.1485,-0.0901,-0.2968,0.0109,-0.0171
6.39,8.903,-0.0713,-0.0903,-0.1931,-0.0072,-0.0233
6.4,8.9135,-0.0623,-0.1532,-0.109,-0.029,0.004
6.41,9.0653,0.0134,-0.0095,0.0526,-0.004,0.0096
6.42,8.9608,0.0311,-0.1342,0.1665,-0.0047,-0.0109
6.43,8.9648,0.1296,-0.1089,0.2639,0.021,0.0156
6.44,9.2131,0.1296,-0.1014,0.3361,0.0062,0.0093
6.45,9.3895,0.138,0.0651,0.3816,0.0322,0.0009
6.46,9.3887,0.2127,0.0327,0.4095,0.0239,-0.018
6.47,9.7903,0.1984,-0.0124,0.3749,-0.0091,-0.0096
6.48,9.9462,0.1979,0.1161,0.3239,-0.0359,-0.0486
6.49,10.1547,0.094,0.0917,0.2353,0.0277,0.0047
6.5,10.3334,0.0822,0.108,0.1461,0.0272,0.0005
6.51,10.3063,0.0301,0.0828,0.0186,-0.0273,0.0038
6.52,10.1666,-0.0348,0.0584,-0.1102,0.0302,0.0101
6.53,10.0154,-0.1527,0.0999,-0.1924,0.0076,0.0077
6.54,10.1768,-0.1482,0.0355,-0.303,0.0032,-0.0022
6.55,9.8059,-0.1677,0.1277,-0.3458,0.0323,0.001
6.56,9.6109,-0.1991,-0.0559,-0.3867,0.0269,-0.0281
6.57,9.4121,-0.2992,0.0544,-0.4266,0.013,-0.0117
6.58,9.2472,-0.1648,-0.0559,-0.3195,0.0095,0.001
6.59,9.0668,-0.0244,-0.0588,-0.2674,0.0123,-0.0147
6.6,8.9227,-0.1032,-0.0488,-0.1714,-0.008,0.0172
6.61,8.8681,-0.064,-0.1306,-0.0495,-0.0011,-0.0132
6.62,8.9107,0.0512,-0.0555,0.0582,-0.018,0.0043
6.63,8.9292,0.1053,-0.2248,0.1839,-0.0067,0.0023
6.64,9.0275,0.1984,-0.108,0.2656,-0.0073,0.0149
6.65,9.2472,0.1124,-0.0944,0.376,-0.0127,0.018
6.66,9.4006,0.2325,-0.0826,0.3897,0.0027,0.0139
6.67,9.7354,0.2285,-0.0007,0.3903,-0.0065,-0.0421
6.68,9.5913,0.1769,0.0584,0.3496,0.01,0.0239
6.69,10.0559,0.1694,0.0998,0.3104,-0.0324,0.0305
6.7,10.1956,0.1586,0.0965,0.2181,-0.0023,-0.0096
6.71,10.0078,0.0958,0.0633,0.1121,0.0026,0.0047
6.72,10.1674,-0.0647,0.1184,-0.0356,-0.0062,-0.0178
6.73,10.1277,-0.0256,0.1005,-0.1652,-0.0034,-0.039
6.74,9.952,-0.1228,0.127,-0.2267,-0.0317,-0.0148
6.75,9.8625,-0.1582,0.0976,-0.2939,0.0071,-0.0108
6.76,9.6616,-0.1858,0.0336,-0.3994,0.013,-0.0071
6.77,9.6975,-0.2074,-0.0423,-0.3681,0.0099,-0.0192
6.78,9.4376,-0.1328,-0.0599,-0.3791,0.0208,-0.0147
6.79,9.2859,-0.1717,-0.0821,-0.3352,0.004,-0.0002
6.8,9.0955,-0.1835,-0.0928,-0.2629,0.0096,-0.0154
6.81,8.8461,-0.0956,-0.0791,-0.1796,0.0031,0.0109
6.82,8.8475,-0.0086,-0.0639,-0.0154,0.0138,0.0136
6.83,8.9401,0.1039,-0.1003,0.0693,-0.0315,0.0476
6.84,8.872,0.1287,-0.0862,0.1815,-0.0179,0.0225
6.85,9.1468,0.1033,-0.0613,0.3114,0.0317,0.0049
6.86,9.2306,0.3041,-0.0695,0.3221,-0.0492,-0.0124
6.87,9.4056,0.211,-0.0613,0.365,-0.0028,0.0059
6.88,9.687,0.2615,-0.0727,0.3951,0.0234,0.0065
6.89,9.8514,0.1723,0.009,0.3656,-0.0019,-0.0103
6.9,9.9471,0.1725,0.0921,0.3013,-0.0081,0.0157
6.91,10.1887,0.1405,0.0519,0.1911,0.0026,-0.028
6.92,10.0784,0.1033,0.0858,0.1354,-0.0071,-0.0049
6.93,10.2258,0.0353,0.1229,-0.0397,0.0006,0.0111
6.94,10.1771,-0.0323,0.1185,-0.1565,-0.0137,-0.0058
6.95,10.0038,-0.1432,0.0231,-0.2709,0.0222,-0.0041
6.96,9.9083,-0.1961,0.1045,-0.3325,0.0285,-0.0028
6.97,9.6038,-0.1758,0.0837,-0.3725,-0.0027,-0.0167
6.98,9.5835,-0.1533,-0.059,-0.3758,-0.0277,0.0235
6.99,9.3019,-0.2006,-0.0733,-0.4086,-0.0105,-0.0204
7.0,9.1008,-0.1085,0.0008,-0.3285,-0.0037,0.0064
7.01,9.087,-0.047,-0.0875,-0.2302,0.0101,0.0083
7.02,8.8542,-0.1124,-0.2053,-0.1214,-0.0202,-0.019
7.03,8.7608,-0.0494,-0.1699,-0.0149,-0.0154,0.0015
7.04,8.7704,0.0451,-0.109,0.1152,0.0102,-0.0182
7.05,9.0216,0.1225,-0.1426,0.1982,0.0188,0.0278
7.06,8.9984,0.1263,-0.0854,0.3361,-0.0124,-0.0228
7.07,9.4069,0.2517,-0.0375,0.3879,-0.0267,-0.0131
7.08,9.2886,0.2202,0.0631,0.3711,0.0657,-0.0245
7.09,9.7854,0.1979,0.0054,0.3704,0.0157,-0.0272
7.1,9.8494,0.1035,0.1018,0.3296,-0.0053,0.0318
7.11,9.9794,0.0729,0.1435,0.291,0.0174,0.0109
7.12,10.0559,0.1037,0.1611,0.1537,-0.0025,0.0028
7.13,10.1913,-0.0741,0.1129,0.0584,0.0173,-0.0131
7.14,10.1584,0.0231,0.0009,-0.046,0.0032,0.0182
7.15,10.1936,-0.0931,0.1135,-0.1716,0.0018,-0.0165
7.16,10.0053,0.0271,0.1262,-0.265,-0.0023,0.0159
7.17,9.8558,-0.0574,0.0463,-0.3669,-0.0289,-0.0175
7.18,9.6327,-0.204,0.1097,-0.3779,0.0388,-0.0129
7.19,9.4622,-0.2047,0.0355,-0.4111,-0.0188,0.0152
7.2,9.3007,-0.1362,-0.0084,-0.3784,-0.0272,0.0173
7.21,8.9702,-0.0705,-0.0085,-0.3066,-0.0043,0.0119
7.22,8.8669,-0.1933,-0.0664,-0.2207,-0.0192,-0.021
7.23,8.9507,-0.1463,-0.2205,-0.1135,-0.001,-0.0089
7.24,8.8777,-0.0286,-0.1249,-0.01,0.0138,0.0031
7.25,8.8808,0.0909,-0.0352,0.1176,0.0199,-0.017
7.26,8.9843,0.1404,-0.122,0.2311,0.0163,0.0274
7.27,9.1458,0.2123,-0.072,0.2901,-0.0061,-0.048
7.28,9.2457,0.1278,-0.0867,0.3662,0.001,-0.0156
7.29,9.4177,0.0839,0.0842,0.4072,0.0082,-0.0102
7.3,9.6897,0.2366,0.1089,0.3619,-0.0352,-0.0569
7.31,9.7752,0.1288,0.0083,0.3635,0.0114,-0.0279
7.32,10.0348,0.0304,0.0828,0.288,-0.0291,0.0125
7.33,9.9704,0.0878,0.0575,0.1363,0.0408,0.0006
7.34,10.2397,0.0622,0.1301,0.0723,-0.0081,0.0315
7.35,10.1876,-0.0436,0.1237,-0.0778,-0.0037,0.0309
7.36,10.1051,-0.117,0.1288,-0.1799,-0.0154,0.0087
7.37,10.0463,-0.1503,0.0869,-0.2945,-0.0126,0.0063
7.38,9.9428,-0.1962,0.1927,-0.3368,0.0455,0.0013
7.39,9.7056,-0.2643,-0.0339,-0.3857,0.0188,-0.0531
7.4,9.2819,-0.2342,-0.0981,-0.4131,-0.031,-0.0279
7.41,9.1388,-0.156,-0.0611,-0.3873,0.0301,0.002
7.42,9.0275,-0.1331,-0.145,-0.3276,0.0239,0.0123
7.43,8.955,-0.0945,-0.1604,-0.202,-0.0056,0.0058
7.44,8.9201,-0.0971,-0.1472,-0.0832,0.0061,-0.0178
7.45,8.8034,0.0035,-0.1459,0.0381,-0.0003,0.0187
7.46,8.9177,-0.0376,-0.1412,0.1402,0.0395,0.0296
7.47,8.9385,0.1325,-0.0527,0.224,-0.0159,0.0188
7.48,9.0924,0.2361,-0.082,0.3158,0.0029,0.0198
7.49,9.2044,0.1173,-0.0387,0.405,-0.0086,-0.0112
7.5,9.4361,0.1707,0.0447,0.3903,-0.0287,0.0215
7.51,9.5949,0.2074,-0.0086,0.3848,0.0438,0.0029
7.52,9.8007,0.2273,0.0435,0.3079,-0.0236,0.0102
7.53,10.1054,0.1012,0.0969,0.2539,0.0044,0.0073
7.54,10.0415,0.0367,-0.0036,0.1334,-0.0348,-0.0024
7.55,10.3695,-0.0859,-0.0194,0.0461,-0.008,-0.0172
7.56,10.1812,-0.0421,0.1145,-0.0791,0.0084,-0.0016
7.57,10.0825,-0.0008,0.1104,-0.2157,-0.0165,0.0197
7.58,9.8746,-0.1353,0.1698,-0.3009,0.0117,-0.0088
7.59,9.8358,-0.1831,0.0493,-0.3751,-0.0054,0.0179
7.6,9.546,-0.1823,0.0535,-0.4252,0.0232,0.0147
7.61,9.4067,-0.1975,-0.0273,-0.411,0.0272,-0.006
7.62,9.4169,-0.2183,-0.0311,-0.3513,-0.0117,0.0278
7.63,9.0466,-0.1011,0.0131,-0.2781,0.0015,-0.0071
7.64,9.0296,-0.0829,-0.1944,-0.1853,0.0037,0.0302
7.65,8.8166,-0.0366,-0.0775,-0.081,0.0124,0.0087
7.66,8.8629,-0.0262,0.0074,0.0638,0.0003,-0.0003
7.67,9.0585,0.1458,-0.0774,0.1624,0.0038,-0.0178
7.68,8.9715,0.1646,0.0071,0.2767,-0.0049,-0.0018
7.69,9.3158,0.1426,-0.084,0.3049,0.0023,-0.0041
7.7,9.4073,0.2438,-0.0265,0.309,0.026,-0.0252
7.71,9.5003,0.1749,0.0067,0.4052,0.0129,-0.0044
7.72,9.7875,0.1486,-0.0764,0.347,0.014,-0.0161
7.73,9.9861,0.1208,0.0024,0.3133,0.0145,0.0117
7.74,10.0938,0.027,0.0268,0.225,-0.0031,0.0261
7.75,10.0063,0.0854,0.1362,0.1554,0.0064,-0.0245
7.76,10.1058,-0.089,0.1436,0.013,-0.0217,0.0342
7.77,10.1175,-0.1184,0.1121,-0.1107,0.0254,-0.0026
7.78,10.0486,-0.2152,0.1243,-0.206,-0.0557,-0.0195
7.79,9.9726,-0.16,0.0546,-0.304,-0.0017,0.0152
7.8,9.7688,-0.1935,0.0969,-0.3811,0.0228,-0.0089
7.81,9.4578,-0.2158,0.008,-0.3774,-0.0273,-0.0016
7.82,9.4007,-0.247,-0.0195,-0.412,0.008,-0.0081
7.83,9.2379,-0.2314,-0.0636,-0.3391,-0.0136,-0.0163
7.84,9.0822,-0.1118,-0.0395,-0.3011,-0.0074,0.0145
7.85,9.0155,-0.1127,-0.1115,-0.1662,0.0189,-0.0057
7.86,8.9406,-0.0117,-0.0502,-0.0513,0.004,-0.0287
7.87,8.9135,-0.0117,-0.1553,0.0986,-0.0407,0.011
7.88,8.9319,0.0987,-0.1443,0.1481,-0.0195,-0.0241
7.89,8.9179,0.2039,-0.0377,0.2654,0.0195,-0.0231
7.9,9.2407,0.2046,-0.0526,0.367,0.009,0.0239
7.91,9.4067,0.1754,-0.0427,0.3986,0.035,-0.0239
7.92,9.6073,0.2119,0.0545,0.4016,0.0337,-0.0463
7.93,9.6731,0.172,0.0088,0.349,-0.0068,0.0125
7.94,9.8555,0.1529,0.0547,0.2932,0.0501,-0.0061
7.95,10.155,0.0909,0.1544,0.2392,0.0005,-0.0044
7.96,10.1468,0.044,0.1735,0.1033,-0.0193,-0.0063
7.97,10.227,0.0031,0.1785,-0.0076,-0.0127,0.0046
7.98,10.1387,-0.1162,0.0802,-0.1354,-0.0451,-0.0151
7.99,10.0475,-0.1704,0.1417,-0.2628,0.0321,0.0295
8.0,9.9818,-0.2312,0.0113,-0.3049,0.0319,-0.0295
8.01,9.6926,-0.2694,-0.0133,-0.3688,-0.0203,0.0089
8.02,9.5499,-0.2608,-0.115,-0.3538,-0.0046,0.0128
8.03,9.3121,-0.1844,0.0563,-0.4051,0.0019,-0.0152
8.04,9.1372,-0.2121,-0.0978,-0.3186,-0.0192,-0.0205
8.05,9.0022,-0.1018,-0.0834,-0.2812,-0.0351,0.0203
8.06,8.9449,-0.0742,-0.138,-0.1488,-0.0042,-0.0198
8.07,8.8432,-0.116,-0.0649,-0.0156,-0.0064,-0.0121
8.08,8.9949,0.0752,-0.1165,0.0434,-0.0078,0.0177
8.09,8.8932,0.1391,-0.1523,0.193,0.0045,0.0007
8.1,9.0712,0.0961,-0.0464,0.2803,0.0286,-0.0359
8.11,9.2125,0.2009,-0.1154,0.3457,-0.0061,0.0349
8.12,9.5506,0.1549,-0.0569,0.4032,0.0034,-0.0106
8.13,9.6466,0.2026,-0.0903,0.4179,0.0145,-0.0081
8.14,9.9006,0.1167,-0.0275,0.3571,0.0111,0.0051
8.15,9.8608,0.0561,0.0774,0.2957,-0.0123,0.0125
8.16,10.1224,0.0794,-0.0112,0.1994,0.0019,0.0392
8.17,10.2426,0.0362,0.0237,0.0848,0.011,-0.0332
8.18,10.191,-0.0375,0.0995,-0.0569,-0.0226,0.0165
8.19,10.2243,-0.1352,0.0653,-0.1297,0.0253,0.0149
8.2,9.998,-0.1475,0.1767,-0.2491,0.0286,-0.0027
8.21,10.0073,-0.154,0.1463,-0.3271,-0.0145,0.0157
8.22,9.9015,-0.1947,-0.0161,-0.4009,0.0039,0.0187
8.23,9.4956,-0.1908,0.0253,-0.4091,0.0128,-0.0276
8.24,9.2976,-0.2229,0.0054,-0.3824,-0.0109,0.035
8.25,9.2769,-0.1032,-0.0887,-0.3543,0.0096,-0.0312
8.26,9.1489,-0.1784,-0.1549,-0.2729,0.0033,-0.0227
8.27,8.8897,-0.0422,-0.0949,-0.1451,-0.0294,-0.0052
8.28,8.8622,0.0516,-0.1086,-0.0046,0.0092,0.0385
8.29,8.8962,0.0762,-0.1183,0.0913,-0.022,-0.0062
8.3,8.8907,0.097,-0.0623,0.194,0.0188,-0.0006
8.31,9.0539,0.1261,-0.1022,0.2887,-0.0134,0.0286
8.32,9.2142,0.2359,-0.0967,0.359,-0.0032,-0.006
8.33,9.4232,0.1278,-0.0046,0.3909,0.0274,-0.0236
8.34,9.6779,0.1475,0.0393,0.4353,0.0099,-0.0083
8.35,9.8837,0.1554,-0.0107,0.3716,-0.0216,0.0274
8.36,10.145,0.2006,0.1184,0.298,-0.0203,0.0014
8.37,10.0548,0.1087,0.0009,0.2027,-0.012,0.0386
8.38,10.2748,-0.0159,0.0698,0.0451,0.0079,0.0148
8.39,10.1824,-0.0431,0.0861,-0.0796,0.0072,-0.0129
8.4,10.1409,-0.1159,0.0587,-0.1924,-0.0169,0.001
8.41,10.0911,-0.1706,0.0455,-0.2434,-0.0233,-0.0171
8.42,9.7963,-0.1238,0.1439,-0.3565,0.0056,-0.0134
8.43,9.7361,-0.2635,-0.0201,-0.4148,-0.0036,0.0896
8.44,9.5252,-0.119,0.1145,-0.4075,0.0431,0.0204
8.45,9.362,-0.1445,-0.015,-0.3767,0.0007,0.0172
8.46,9.1781,-0.1011,-0.0582,-0.306,0.0363,-0.0125
8.47,9.2206,-0.1345,-0.0592,-0.2177,-0.0234,0.0314
8.48,8.891,-0.0645,0.0306,-0.1306,-0.0315,0.022
8.49,8.8738,-0.0691,-0.1497,0.0187,-0.0224,0.0376
8.5,8.8993,0.0356,-0.1511,0.1108,0.0238,0.0367
8.51,8.9933,0.1402,-0.1194,0.2279,0.0351,-0.0296
8.52,9.1234,0.2236,-0.0592,0.3313,-0.0156,-0.0222
8.53,9.4418,0.1324,-0.1208,0.3627,-0.0092,-0.0201
8.54,9.6528,0.1815,-0.0039,0.3881,-0.0234,-0.0189
8.55,9.6889,0.1862,0.1095,0.3993,-0.0362,0.0065
8.56,9.8489,0.1004,0.0601,0.3232,0.0144,-0.0113
8.57,10.1033,0.1609,0.0608,0.2549,0.0045,0.0415
8.58,10.1272,0.0444,0.0606,0.1723,0.0002,0.0381
8.59,10.2741,0.0128,0.1443,0.0862,-0.028,-0.0001
8.6,10.2336,-0.0601,0.0569,-0.0628,0.0328,0.0391
8.61,10.0323,-0.1336,0.1805,-0.1788,-0.0101,0.0298
8.62,10.1618,-0.1427,0.1669,-0.274,0.0107,-0.009
8.63,10.0249,-0.1884,0.0588,-0.3767,-0.0291,-0.0402
8.64,9.6485,-0.2155,0.0169,-0.3915,-0.0038,-0.0044
8.65,9.4725,-0.2348,0.039,-0.3974,0.0058,-0.0129
8.66,9.3397,-0.166,0.0133,-0.3576,0.0065,0.0041
8.67,9.1813,-0.0665,-0.1069,-0.296,0.0031,0.0018
8.68,9.084,-0.0959,-0.1121,-0.1982,0.0099,0.0013
8.69,9.1193,0.0025,-0.1633,-0.1008,-0.0226,0.0105
8.7,8.9284,-0.057,-0.0793,0.0263,0.0039,-0.0243
8.71,8.9214,0.0792,-0.0601,0.118,0.0023,0.0082
8.72,8.9725,0.0687,-0.1461,0.2407,0.0046,-0.0088
8.73,9.168,0.0909,-0.0795,0.3572,0.0014,0.004
8.74,9.4008,0.154,-0.0971,0.3883,-0.0255,0.0191
8.75,9.7414,0.2596,-0.0449,0.3996,-0.0264,-0.0245
8.76,9.7509,0.2385,0.0573,0.4199,-0.0443,-0.0056
8.77,9.9872,0.1769,0.0201,0.3022,0.0164,-0.0024
8.78,10.1117,0.0469,0.0636,0.225,0.0166,-0.0103
8.79,10.3057,0.0615,0.0121,0.1768,0.0169,0.018
8.8,10.4555,0.0276,0.1092,0.026,0.0061,-0.0144
8.81,10.1951,-0.0385,0.0949,-0.0995,-0.0427,-0.0111
8.82,10.1256,-0.1951,0.0493,-0.2298,-0.0205,-0.0142
8.83,10.1252,-0.1937,0.0572,-0.2894,0.0034,0.0218
8.84,9.9341,-0.1852,0.0505,-0.3532,0.0027,-0.0098
8.85,9.8408,-0.1716,-0.0282,-0.4187,-0.0045,0.0092
8.86,9.546,-0.3067,-0.0913,-0.3966,0.0074,0.0395
8.87,9.287,-0.1857,0.0443,-0.362,0.0002,-0.0015
8.88,9.2064,-0.1352,-0.1019,-0.2795,0.0024,0.0222
8.89,9.1325,-0.0517,-0.0931,-0.2107,-0.0128,0.0334
8.9,9.0459,-0.0028,-0.0477,-0.0499,0.0196,0.0205
8.91,9.015,0.0517,0.0771,0.0635,-0.0086,-0.0003
8.92,9.1121,0.0406,-0.1537,0.1539,-0.0266,0.0128
8.93,9.2264,0.0359,-0.0529,0.2583,-0.0154,-0.0257
8.94,9.3939,0.1505,-0.0879,0.3377,-0.007,-0.0156
8.95,9.5164,0.2438,-0.0518,0.3719,0.0199,-0.0121
8.96,9.6469,0.2694,-0.031,0.3906,-0.0008,0.0448
8.97,9.8649,0.2233,-0.0218,0.3701,-0.0037,-0.0163
8.98,10.1223,0.1803,0.0587,0.3499,-0.025,-0.0165
8.99,10.0974,0.1345,0.0079,0.25,0.0157,-0.0209
9.0,10.2813,0.034,0.1424,0.1423,-0.013,0.0112
9.01,10.2537,-0.004,0.1027,0.0124,-0.002,0.0029
9.02,10.2621,0.0264,0.117,-0.1364,0.0296,0.0217
9.03,10.2804,-0.1585,0.0598,-0.2236,0.0102,0.0134
9.04,10.0631,-0.075,0.0444,-0.292,-0.0326,-0.0276
9.05,9.8844,-0.2021,0.0512,-0.3971,-0.0354,-0.0161
9.06,9.5831,-0.1332,-0.0507,-0.3861,-0.0013,0.0273
9.07,9.5584,-0.2652,-0.0403,-0.3434,-0.0243,-0.0041
9.08,9.3704,-0.1435,-0.0933,-0.3243,0.013,0.0238
9.09,9.3413,-0.1719,-0.1183,-0.2419,0.0008,-0.003
9.1,9.0365,-0.1559,-0.196,-0.1659,0.0033,-0.0194
9.11,9.0246,-0.0166,-0.0321,-0.0358,-0.0141,-0.0061
9.12,9.0311,0.083,-0.133,0.0507,0.0348,-0.0194
9.13,9.1993,0.0474,-0.0312,0.1953,0.0569,-0.0113
9.14,9.1798,0.0638,-0.0186,0.2905,-0.0056,0.004
9.15,9.3665,0.1707,-0.1125,0.3563,0.0071,0.0102
9.16,9.5777,0.1916,-0.0744,0.4183,0.0019,-0.0318
9.17,9.7407,0.2264,0.1381,0.3872,-0.0052,-0.0003
9.18,9.8809,0.2315,0.1267,0.3644,-0.0166,-0.0117
9.19,10.0999,0.1495,0.0631,0.3069,-0.0217,-0.013
9.2,10.3002,0.1999,0.0973,0.1937,-0.0227,0.0027
9.21,10.2125,0.0634,0.065,0.1089,0.0081,-0.011
9.22,10.329,-0.0249,0.1215,-0.0495,-0.0104,0.0276
9.23,10.2274,-0.1471,0.0584,-0.1122,-0.0516,0.0238
9.24,10.2887,-0.1327,-0.0215,-0.2382,0.0089,0.0236
9.25,9.934,-0.1786,-0.0073,-0.334,-0.0008,-0.0099
9.26,9.8394,-0.1414,0.0331,-0.3955,0.0269,-0.0192
9.27,9.7237,-0.1768,-0.054,-0.4046,0.0075,0.0016
9.28,9.6267,-0.2514,-0.0307,-0.371,-0.0296,-0.003
9.29,9.3201,-0.1589,-0.1084,-0.3241,-0.0446,-0.0122
9.3,9.137,-0.0939,-0.1162,-0.2691,-0.0144,-0.0235
9.31,9.2332,0.0004,-0.0498,-0.1688,-0.0125,-0.0008
9.32,8.9224,0.0268,-0.0872,-0.022,0.0189,-0.0081
9.33,8.8763,0.0804,-0.0982,0.0704,-0.0002,0.0138
9.34,9.1587,0.1015,-0.0431,0.1983,0.0227,0.0133
9.35,9.2057,0.1652,-0.0444,0.2941,-0.0265,0.022
9.36,9.3268,0.2424,0.0286,0.366,0.0193,-0.0252
9.37,9.6533,0.1311,-0.038,0.4126,0.0144,0.008
9.38,9.8132,0.1803,-0.0065,0.3702,-0.0404,-0.0145
9.39,9.9368,0.1413,-0.0213,0.3215,0.0265,-0.0244
9.4,10.0421,0.1648,0.047,0.2802,0.0019,-0.0086
9.41,10.3367,0.1601,0.1353,0.2331,0.0078,0.0214
9.42,10.3903,0.0126,0.1627,0.1252,-0.0173,-0.0074
9.43,10.3444,-0.1371,0.1476,0.0015,0.0255,0.0313
9.44,10.4556,-0.0966,0.0028,-0.1558,-0.0237,0.011
9.45,10.1236,-0.0818,0.1312,-0.2906,0.0166,-0.0079
9.46,9.9433,-0.1406,-0.0373,-0.3819,0.0164,0.0232
9.47,9.834,-0.171,0.0722,-0.3971,-0.0195,0.0089
9.48,9.6937,-0.2139,-0.0209,-0.4038,0.0397,-0.0187
9.49,9.5264,-0.2534,0.003,-0.3528,0.0046,0.0372
9.5,9.3159,-0.136,-0.1254,-0.3063,0.0131,0.0052
9.51,9.2262,-0.1613,-0.0216,-0.2346,-0.0305,0.0004
9.52,9.0078,0.0426,-0.1675,-0.1509,0.0424,-0.0171
9.53,9.1887,0.021,-0.1334,-0.0343,-0.0245,0.0236
9.54,9.0904,0.0231,-0.1464,0.1094,0.0205,0.0103
9.55,9.2669,0.0766,-0.1721,0.2283,-0.0199,0.0126
9.56,9.3349,0.1478,-0.06,0.3128,-0.0124,-0.0102
9.57,9.5121,0.1721,0.0512,0.3474,0.0158,0.0167
9.58,9.7121,0.2548,0.1233,0.411,0.0206,0.0182
9.59,9.8992,0.2053,0.0248,0.4005,-0.0254,-0.0134
9.6,10.1,0.1387,0.104,0.3291,0.0218,-0.0283
9.61,10.3118,0.2333,0.0836,0.2618,0.0209,0.0116
9.62,10.3358,0.0921,0.1143,0.1931,-0.0188,-0.0315
9.63,10.4389,0.071,0.0816,0.0604,0.032,0.003
9.64,10.3793,-0.058,0.1088,-0.0233,-0.0291,-0.0089
9.65,10.4479,-0.067,0.1174,-0.1603,-0.0125,0.0244
9.66,10.1717,-0.1195,0.0448,-0.2799,0.0096,-0.0079
9.67,10.2197,-0.2673,0.0465,-0.3458,-0.0171,0.0221
9.68,9.8927,-0.0941,0.0195,-0.3885,0.0053,-0.0103
9.69,9.5885,-0.1349,0.0338,-0.4134,0.0048,0.02
9.7,9.5248,-0.2058,-0.0901,-0.3902,-0.0037,0.0412
9.71,9.2932,-0.2108,-0.0653,-0.2974,0.0166,-0.0214
9.72,9.2849,-0.094,0.0125,-0.2058,-0.0046,0.0058
9.73,9.0841,-0.0527,-0.0376,-0.1019,0.0046,0.055
9.74,9.0756,0.0203,-0.0325,0.0353,0.0229,0.0013
9.75,8.9937,0.0714,-0.0939,0.1128,0.0158,0.0012
9.76,9.1981,0.1408,-0.0656,0.2645,0.0157,0.0158
9.77,9.1777,0.2312,-0.0107,0.2996,-0.023,0.0008
9.78,9.4179,0.2162,0.0435,0.3552,0.0105,-0.0341
9.79,9.7987,0.1473,-0.1026,0.3643,-0.0176,0.0226
9.8,9.9969,0.2618,-0.0409,0.3785,-0.0256,-0.0401
9.81,10.1497,0.2522,0.118,0.3303,-0.0014,-0.0083
9.82,10.189,0.2889,0.0616,0.2732,-0.0181,0.0241
9.83,10.3691,0.0244,0.0579,0.166,0.0158,-0.0071
9.84,10.4255,0.0347,0.0367,0.0213,0.0163,-0.0139
9.85,10.3276,-0.1416,0.0705,-0.0828,-0.0381,0.0176
9.86,10.4774,-0.0665,0.0181,-0.1957,-0.0166,-0.017
9.87,10.3124,-0.1697,0.1748,-0.3201,-0.0292,-0.0244
9.88,10.0685,-0.0815,0.0448,-0.3749,-0.0093,0.0055
9.89,9.9052,-0.2356,0.0146,-0.4092,0.0091,-0.0037
9.9,9.7264,-0.2829,0.0169,-0.3682,-0.0048,-0.0249
9.91,9.3604,-0.2056,0.0067,-0.3602,-0.0118,0.0127
9.92,9.3422,-0.248,-0.0193,-0.2851,0.026,0.0093
9.93,9.1849,-0.0653,-0.0321,-0.2357,-0.0461,-0.0072
9.94,9.087,-0.1506,-0.1287,-0.0707,0.0247,-0.0058
9.95,9.1294,0.014,-0.1147,0.0511,-0.0109,0.0094
9.96,9.339,-0.0326,-0.055,0.1026,-0.0016,0.0238
9.97,9.3445,0.1076,-0.105,0.233,-0.0105,-0.0057
9.98,9.3918,0.2469,-0.057,0.3393,0.0309,0.0131
9.99,9.6608,0.209,-0.0098,0.3948,-0.0246,0.0113
10.0,9.9219,0.1568,0.0393,0.3864,0.0002,0.0176
10.01,10.0789,0.1894,-0.0592,0.3758,0.0105,0.0008
10.02,10.1873,0.1656,0.0925,0.3175,-0.0322,-0.0182
10.03,10.275,0.1472,0.0669,0.2494,-0.0184,-0.0092
10.04,10.4807,0.0029,0.1288,0.1665,-0.003,0.0069
10.05,10.4996,0.0422,0.1386,0.0097,-0.0177,0.0364
10.06,10.5245,-0.1825,0.1776,-0.0746,-0.0163,-0.0097
10.07,10.4314,-0.1344,0.1534,-0.2214,-0.007,0.0161
10.08,10.3419,-0.1736,0.1339,-0.3153,0.013,-0.0066
10.09,10.0535,-0.1504,0.1136,-0.3477,-0.0069,0.0022
10.1,10.0157,-0.1973,0.0271,-0.3784,0.0216,0.0303
10.11,9.7328,-0.2672,-0.0159,-0.3768,-0.02,0.0153
10.12,9.6999,-0.2269,-0.0023,-0.3816,-0.025,-0.0248
10.13,9.3226,-0.1324,-0.0337,-0.2939,0.0385,-0.0114
10.14,9.4017,-0.0981,-0.1037,-0.1718,-0.0132,0.0251
10.15,9.2156,-0.0664,-0.078,-0.0741,-0.0262,0.0028
10.16,9.1421,-0.0015,-0.1011,0.0237,-0.0348,-0.023
10.17,9.2084,0.1154,-0.1342,0.1703,0.0215,-0.0164
10.18,9.328,0.1054,-0.0109,0.2483,-0.0068,0.0141
10.19,9.5383,0.1658,-0.0498,0.3763,-0.0051,0.0199
10.2,9.7278,0.3022,0.0776,0.4183,-0.0032,0.0004
10.21,9.8362,0.1286,-0.0763,0.4116,0.0203,0.0495
10.22,10.0734,0.0952,0.0066,0.4027,-0.0036,0.0165
10.23,10.4197,0.198,0.0624,0.3189,0.0469,-0.0049
10.24,10.5239,0.0816,0.1385,0.2463,0.0027,-0.0163
10.25,10.51,0.0459,0.1151,0.1532,0.0212,-0.0195
10.26,10.5118,-0.0365,0.1155,0.0099,0.0161,0.0067
10.27,10.4933,-0.07,0.0395,-0.1191,-0.0007,-0.0098
10.28,10.4515,-0.0314,0.0252,-0.2568,-0.0117,0.0335
10.29,10.1905,-0.1156,0.0789,-0.313,0.0066,0.0293
10.3,10.0849,-0.1428,-0.0314,-0.3554,0.0102,0.0127
10.31,9.7835,-0.2702,-0.0191,-0.38,-0.0115,-0.0236
10.32,9.7561,-0.2525,0.0026,-0.3797,0.0033,-0.0134
10.33,9.5962,-0.3147,-0.0995,-0.3564,0.0247,0.0251
10.34,9.3556,-0.1755,0.0065,-0.3097,0.0414,-0.0113
10.35,9.4132,-0.0373,-0.0293,-0.1802,0.0171,0.0224
10.36,9.1354,-0.0017,-0.1776,-0.0612,0.0373,0.0095
10.37,9.1206,0.0215,-0.1453,0.0588,-0.0126,0.001
10.38,9.3179,0.0886,-0.2037,0.1917,0.014,-0.0141
10.39,9.4983,0.1043,-0.1112,0.3172,0.0268,-0.0019
10.4,9.7062,0.1855,-0.0099,0.353,-0.0179,0.0038
10.41,9.7199,0.2343,-0.0407,0.3876,-0.0097,0.0207
10.42,10.0398,0.1182,0.0331,0.3928,0.0348,-0.0177
10.43,10.1414,0.199,-0.037,0.3706,-0.0195,-0.0053
10.44,10.2987,0.1991,0.1046,0.2884,-0.0268,0.0009
10.45,10.5132,0.0864,0.0567,0.2167,0.0306,0.0133
10.46,10.5752,0.0872,0.0971,0.1134,0.0239,-0.0182
10.47,10.4207,0.1332,0.0953,-0.0109,0.0086,-0.0263
10.48,10.6302,-0.0718,0.0307,-0.124,-0.0009,0.0135
10.49,10.5323,-0.0999,0.0225,-0.2305,-0.0088,-0.0304
10.5,10.2347,-0.1987,0.1072,-0.359,0.0056,0.0257
10.51,10.1448,-0.1804,0.052,-0.3661,0.0316,-0.0031
10.52,9.9621,-0.1769,0.055,-0.4133,0.0048,-0.031
10.53,9.7515,-0.1827,-0.0111,-0.4067,0.0433,-0.0096
10.54,9.5107,-0.2185,-0.0475,-0.3571,-0.018,0.0076
10.55,9.3571,-0.1172,-0.1634,-0.2463,-0.0004,-0.0107
10.56,9.31,-0.0028,-0.106,-0.1564,-0.0075,0.0004
10.57,9.3615,0.0049,-0.101,-0.0688,-0.0217,0.0148
10.58,9.3252,0.0905,-0.0001,0.0944,-0.0031,-0.004
10.59,9.3234,0.0867,-0.0527,0.1683,0.0083,-0.0187
10.6,9.5372,0.1833,0.0083,0.2944,0.0105,-0.006
10.61,9.4102,0.1938,-0.0138,0.3645,0.0434,0.0283
10.62,9.9182,0.1502,-0.0506,0.4132,0.0093,0.0337
10.63,9.8841,0.2137,0.0209,0.4311,0.023,-0.0404
10.64,10.1825,0.1303,0.0555,0.3325,0.0013,0.0218
10.65,10.2845,0.1141,0.0215,0.2905,0.0336,0.005
10.66,10.3929,0.108,0.0678,0.1916,0.048,0.0185
10.67,10.6607,0.0573,0.0874,0.0935,0.0106,-0.011
10.68,10.5444,-0.077,0.1799,-0.0308,-0.0199,-0.0354
10.69,10.565,-0.0233,-0.0115,-0.159,-0.011,0.0117
10.7,10.4348,-0.0989,0.1373,-0.2638,0.0056,-0.0188
10.71,10.3328,-0.2027,0.0078,-0.3573,0.0091,-0.0278
10.72,10.1247,-0.2693,-0.0413,-0.3651,0.014,-0.0264
10.73,9.8239,-0.2072,0.0565,-0.3907,0.0092,0.012
10.74,9.8156,-0.2117,0.0045,-0.3605,0.0001,0.0028
10.75,9.5246,-0.1561,0.0039,-0.3298,-0.0127,0.0156
10.76,9.3023,-0.1377,-0.0401,-0.2523,0.008,0.0134
10.77,9.3024,-0.1669,0.0087,-0.1547,0.0371,-0.0084
10.78,9.4217,-0.027,-0.072,-0.0079,0.0204,-0.0014
10.79,9.3934,0.0369,-0.1044,0.0835,0.0107,-0.0102
10.8,9.3778,0.1388,-0.0673,0.2513,0.0206,-0.0042
10.81,9.5076,0.1176,-0.0025,0.2788,-0.0074,-0.0193
10.82,9.6777,0.268,-0.0781,0.3736,-0.0102,0.0078
10.83,10.0604,0.1034,-0.0426,0.4293,-0.015,0.0215
10.84,10.1215,0.2615,0.0045,0.4039,-0.0025,-0.0163
10.85,10.3103,0.164,-0.0571,0.354,-0.0084,0.0256
10.86,10.515,0.1817,0.0789,0.2581,0.0242,0.0023
10.87,10.566,0.0937,-0.0049,0.1517,-0.0095,0.0048
10.88,10.5882,0.0895,0.1013,0.0805,-0.0161,-0.034
10.89,10.5972,-0.0469,0.1423,-0.025,0.0389,-0.0361
10.9,10.5532,-0.1401,0.0666,-0.1791,-0.009,0.0029
10.91,10.4487,-0.064,0.1576,-0.2929,0.0031,0.0158
10.92,10.3595,-0.1785,-0.0227,-0.3947,0.009,-0.0134
10.93,10.1254,-0.1838,0.082,-0.4094,-0.0227,0.0334
10.94,9.9867,-0.1377,0.0262,-0.4011,0.0247,0.0147
10.95,9.7329,-0.2376,-0.1226,-0.3399,0.0127,-0.0182
10.96,9.5785,-0.1259,0.0728,-0.2979,0.0312,0.0006
10.97,9.282,-0.1409,-0.0862,-0.2166,-0.0136,0.0495
10.98,9.4335,-0.0636,-0.1397,-0.122,0.002,-0.0249
10.99,9.3626,0.0061,-0.1703,-0.0066,0.0008,0.0106
11.0,9.448,-0.0132,-0.1061,0.1517,0.0053,-0.0065
11.01,9.2255,0.0766,-0.088,0.235,-0.0291,0.0141
11.02,9.7613,0.2264,-0.0557,0.2755,0.0022,0.0253
11.03,9.7557,0.2321,-0.0494,0.362,-0.0285,-0.0077
11.04,10.0484,0.1966,0.0266,0.3823,0.0072,0.0224
11.05,10.0723,0.2059,0.0055,0.3765,-0.0426,0.0444
11.06,10.3857,0.1555,-0.0442,0.3517,-0.037,0.0013
11.07,10.4028,0.1991,0.068,0.2605,0.0164,0.0157
11.08,10.5433,0.0706,-0.0268,0.1596,-0.0109,-0.0118
11.09,10.7987,0.0342,0.117,0.0714,-0.0198,0.0004
11.1,10.6245,0.0198,0.0493,-0.0889,0.0254,-0.0035
11.11,10.5936,-0.133,0.0964,-0.151,0.0066,0.0159
11.12,10.5304,-0.0644,0.136,-0.298,0.0174,0.0241
11.13,10.3439,-0.2542,-0.0015,-0.3535,-0.0033,-0.0022
11.14,10.1328,-0.1154,0.0706,-0.3994,0.0536,0.0307
11.15,9.9561,-0.2171,-0.0342,-0.3944,-0.0121,0.0306
11.16,9.9327,-0.1942,0.0462,-0.3552,0.0349,0.0169
11.17,9.5737,-0.2437,-0.0849,-0.2897,-0.0012,-0.0103
11.18,9.4713,-0.1256,-0.1278,-0.2208,-0.0331,-0.0122
11.19,9.4665,-0.0993,-0.0628,-0.1171,0.0097,-0.0162
11.2,9.4551,-0.0178,-0.1216,0.0752,0.0063,0.019
11.21,9.5044,0.0644,-0.1355,0.1329,-0.021,-0.0242
11.22,9.5581,0.1715,-0.1025,0.2611,-0.0184,0.0135
11.23,9.5593,0.1751,-0.059,0.2973,-0.0005,-0.0216
11.24,9.9584,0.2064,0.0374,0.3764,0.007,0.0165
11.25,9.9304,0.1452,-0.0967,0.3975,-0.0494,0.0003
11.26,10.2407,0.1469,0.0309,0.3914,0.0211,0.0267
11.27,10.3332,0.2546,0.088,0.275,-0.0099,0.0228
11.28,10.532,0.0868,0.0883,0.2505,-0.0266,0.0287
11.29,10.661,0.1541,0.1589,0.1196,0.0188,0.0292
11.3,10.7031,0.0004,0.0961,0.0316,-0.0005,0.0029
11.31,10.6953,-0.0472,0.0879,-0.1153,0.0243,-0.0232
11.32,10.7177,-0.0494,0.1154,-0.2229,0.0088,-0.0211
11.33,10.5017,-0.0856,0.0716,-0.3038,-0.0,-0.0417
11.34,10.2836,-0.1876,0.0219,-0.3851,-0.0031,-0.0217
11.35,10.1936,-0.2178,0.0383,-0.4064,0.0097,0.0014
11.36,10.0177,-0.1997,-0.0501,-0.4177,-0.0083,-0.0112
11.37,9.6406,-0.1607,-0.0765,-0.3919,-0.0171,-0.0036
11.38,9.6298,-0.0977,-0.0967,-0.2643,0.0122,0.0099
11.39,9.5226,-0.0939,-0.0206,-0.2142,-0.0029,-0.0061
11.4,9.3789,-0.0065,-0.2593,-0.0785,0.0007,-0.0224
11.41,9.5066,0.1045,-0.0796,0.0602,0.0218,-0.0011
11.42,9.4366,0.0996,-0.0898,0.1489,-0.0023,-0.018
11.43,9.5645,0.1469,-0.1595,0.2461,0.0003,-0.0054
11.44,9.6907,0.0943,-0.037,0.3449,-0.012,0.0269
11.45,9.8866,0.0622,-0.0011,0.4098,0.0086,-0.0054
11.46,9.9932,0.2192,0.0345,0.3761,0.007,0.0354
11.47,10.1582,0.183,-0.0981,0.3725,0.018,0.0286
11.48,10.5732,0.1331,0.1291,0.2829,-0.0116,-0.0116
11.49,10.5145,0.1277,0.0447,0.2232,-0.0092,-0.0222
11.5,10.5916,0.0588,0.1294,0.1243,0.0158,-0.0011
11.51,10.5315,0.0589,0.137,-0.0121,0.005,0.0231
11.52,10.6268,-0.0527,0.052,-0.1231,-0.0181,-0.0098
11.53,10.49,-0.1487,0.1161,-0.2509,0.0261,0.0182
11.54,10.5964,-0.1062,0.0435,-0.3098,-0.034,0.0242
11.55,10.3782,-0.1968,-0.0668,-0.3508,0.0157,-0.0155
11.56,10.0531,-0.1731,0.0659,-0.4208,-0.0253,-0.0135
11.57,10.0946,-0.2188,-0.0612,-0.4023,0.0377,0.0143
11.58,9.8124,-0.2053,-0.0931,-0.3355,-0.0309,0.003
11.59,9.5569,-0.1309,-0.0939,-0.2459,0.023,-0.0137
11.6,9.2752,-0.0845,-0.0769,-0.2002,-0.0016,-0.007
11.61,9.6038,-0.0036,-0.1019,-0.0585,-0.0073,-0.0014
11.62,9.3128,0.0191,-0.0713,0.0707,0.0037,-0.0313
11.63,9.3537,-0.0021,-0.1564,0.1773,0.0126,0.0153
11.64,9.6809,0.1171,-0.1092,0.2279,-0.0181,-0.0096
11.65,9.9503,0.215,-0.054,0.3605,-0.0163,-0.0557
11.66,10.0501,0.1811,0.0749,0.4223,0.013,-0.0005
11.67,10.1805,0.1867,0.0043,0.4003,-0.0341,-0.0148
11.68,10.373,0.2334,0.0934,0.3475,-0.0117,0.0338
11.69,10.5608,0.1169,0.0666,0.2947,0.0608,-0.0117
11.7,10.6824,0.03,0.0602,0.2497,-0.0194,-0.022
11.71,10.7238,0.0441,0.0842,0.1225,0.023,0.0102
11.72,10.7326,-0.0317,0.0915,-0.0023,-0.0117,-0.0132
11.73,10.6835,-0.1149,0.1245,-0.126,0.0102,-0.0156
11.74,10.5371,-0.1283,0.1489,-0.2524,0.0131,0.0102
11.75,10.4369,-0.1372,0.0768,-0.3276,0.0226,-0.0208
11.76,10.1513,-0.1899,0.0914,-0.3804,-0.004,-0.0291
11.77,10.0875,-0.1846,-0.0457,-0.3889,0.0398,0.0345
11.78,9.8233,-0.1017,-0.048,-0.3546,-0.0118,0.0116
11.79,9.6372,-0.1846,-0.0909,-0.3126,0.0047,-0.0053
11.8,9.595,-0.1136,-0.0613,-0.2834,0.0049,-0.0001
11.81,9.5923,-0.1014,-0.1105,-0.1474,-0.0224,0.0101
11.82,9.509,-0.0599,-0.0631,-0.0204,-0.0057,0.0195
11.83,9.3229,0.0132,-0.1443,0.0972,0.0032,-0.0151
11.84,9.4398,0.0746,-0.0849,0.1845,-0.0086,0.0073
11.85,9.7156,0.1638,-0.0341,0.3499,0.0488,-0.0101
11.86,9.7233,0.2973,-0.147,0.3342,-0.0168,-0.0038
11.87,9.9712,0.1619,0.0911,0.3738,0.0236,0.0032
11.88,10.2292,0.1769,0.0009,0.4001,0.0171,-0.0001
11.89,10.2949,0.1767,-0.0575,0.4021,-0.0003,0.0147
11.9,10.5423,0.1656,0.0764,0.2749,-0.0173,0.0097
11.91,10.5485,0.1117,0.0887,0.1918,-0.0154,-0.0302
11.92,10.6774,0.1066,0.0936,0.1063,-0.0104,-0.0272
11.93,10.764,-0.1389,0.1492,-0.0355,-0.0357,-0.0074
11.94,10.5655,-0.1953,0.1299,-0.1586,-0.0201,0.0366
11.95,10.6283,-0.1523,0.0919,-0.2437,-0.0296,-0.017
11.96,10.4465,-0.1126,0.0771,-0.3296,0.0269,-0.0042
11.97,10.3151,-0.2707,0.0221,-0.3642,0.0124,-0.0107
11.98,10.0957,-0.3503,0.0863,-0.374,0.0157,-0.0111
11.99,9.9952,-0.1609,-0.1061,-0.3727,0.0118,0.0036
12.0,9.7233,-0.1496,-0.0518,-0.3178,0.0033,0.028
12.01,9.5405,-0.1741,-0.0769,-0.2349,0.0292,0.0091
12.02,9.4933,-0.1158,-0.0536,-0.1233,-0.0122,-0.0161
12.03,9.4909,-0.056,-0.1421,-0.014,0.0021,0.0551
12.04,9.474,0.0577,-0.1837,0.1043,0.0149,0.0016
12.05,9.5525,0.0758,-0.0766,0.2383,-0.0264,-0.0115
12.06,9.6219,0.1772,-0.0506,0.3353,0.0619,0.0282
12.07,9.7917,0.0413,0.0353,0.3379,0.0006,-0.0094
12.08,9.9222,0.1561,-0.0736,0.3982,0.0028,0.0333
12.09,10.3699,0.1397,0.0777,0.3782,0.0251,-0.0174
12.1,10.3142,0.1624,0.1665,0.3443,0.0183,0.0286
12.11,10.5138,0.1118,0.0531,0.2855,0.0008,0.004
12.12,10.625,0.1296,0.0248,0.1927,0.0026,0.0258
12.13,10.8149,-0.0604,0.0783,0.0628,-0.0301,0.038
12.14,10.7226,-0.0253,0.0997,-0.0934,-0.0111,-0.0227
12.15,10.7907,-0.0572,0.1187,-0.1896,0.0103,0.0255
12.16,10.5287,-0.0422,0.0442,-0.2522,0.0089,-0.0282
12.17,10.4532,-0.1969,0.1281,-0.4004,0.0244,-0.0209
12.18,10.1829,-0.1787,-0.0333,-0.3661,-0.0024,-0.0161
12.19,10.227,-0.2896,-0.0945,-0.3884,-0.0277,0.0101
12.2,9.7704,-0.3056,0.0185,-0.3456,0.0211,0.0007
12.21,9.7218,-0.1135,-0.1765,-0.3154,0.0287,-0.0033
12.22,9.6162,-0.1117,-0.0933,-0.264,0.018,0.0029
12.23,9.5158,0.0019,0.06,-0.1054,-0.0033,0.0118
12.24,9.4412,-0.0662,-0.1006,0.0305,0.0209,0.0134
12.25,9.4777,0.0878,-0.1511,0.1421,0.0686,0.0219
12.26,9.5795,0.209,-0.0845,0.2178,0.0023,0.0364
12.27,9.7,0.1798,-0.0633,0.3193,-0.0262,-0.0004
12.28,9.9602,0.2016,-0.0264,0.3648,-0.0117,-0.0104
12.29,10.2516,0.2002,0.0281,0.3831,0.0125,0.0123
12.3,10.2247,0.1152,-0.0271,0.4065,-0.0321,-0.0229
12.31,10.3396,0.238,0.1369,0.3164,0.0034,-0.0136
12.32,10.5913,0.1008,0.0877,0.2448,0.0076,0.02
12.33,10.9096,0.1058,0.1279,0.1391,0.0307,-0.0025
12.34,10.69,-0.0556,0.068,0.0153,0.0262,-0.0242
12.35,10.8783,-0.0964,0.1625,-0.072,0.0173,-0.0298
12.36,10.8165,-0.0224,0.0754,-0.1651,-0.0433,0.001
12.37,10.5214,-0.1597,0.0841,-0.2883,0.0184,0.0228
12.38,10.4534,-0.105,-0.0007,-0.3854,0.0141,0.0226
12.39,10.3533,-0.2008,-0.0323,-0.377,0.0051,0.0022
12.4,9.9976,-0.2905,0.0219,-0.3631,-0.0346,0.0402
12.41,9.8239,-0.1374,-0.0636,-0.377,-0.0155,-0.0021
12.42,9.6302,-0.1787,-0.1093,-0.3079,-0.0233,-0.0028
12.43,9.4711,-0.068,-0.1179,-0.1955,-0.0403,-0.0513
12.44,9.4263,-0.046,-0.0622,-0.0622,-0.0001,-0.0089
12.45,9.3632,-0.0646,-0.1313,0.0147,-0.016,0.017
12.46,9.5053,0.0795,-0.0993,0.1159,0.0525,0.0313
12.47,9.5373,0.2334,-0.0779,0.2598,-0.0034,-0.0166
12.48,9.76,0.1894,-0.1526,0.3454,0.0259,0.0092
12.49,9.7924,0.1881,-0.1033,0.3821,-0.0314,0.0209
12.5,10.1365,0.2538,0.0168,0.3888,-0.0106,0.0002
12.51,10.3698,0.2015,-0.0071,0.4018,0.0019,-0.0457
12.52,10.3192,0.1752,0.1096,0.34,-0.0182,0.0049
12.53,10.651,0.069,0.127,0.2318,-0.0084,0.0152
12.54,10.8154,0.083,0.1294,0.1435,-0.0044,-0.0189
12.55,10.6618,0.0643,0.1908,-0.0019,-0.0047,-0.0051
12.56,10.8752,-0.0891,0.093,-0.0809,0.0371,-0.0231
12.57,10.7006,-0.0317,0.1182,-0.211,0.0076,-0.0514
12.58,10.4861,-0.1538,0.0374,-0.3071,0.0096,0.0205
12.59,10.3744,-0.2264,0.1641,-0.3647,0.0108,-0.0001
12.6,10.2355,-0.1485,0.1117,-0.396,0.0123,0.032
12.61,10.0016,-0.2113,-0.0169,-0.3759,-0.0017,0.0171
12.62,9.8535,-0.1397,-0.0266,-0.3434,-0.0064,-0.0071
12.63,9.5786,-0.1569,-0.0023,-0.2877,0.0033,-0.0017
12.64,9.5489,-0.0971,-0.0956,-0.173,0.0231,0.0113
12.65,9.3571,-0.0128,-0.1311,-0.0669,0.0225,0.0193
12.66,9.4537,0.0371,-0.0557,0.0366,-0.0048,0.0065
12.67,9.4411,-0.0192,-0.0876,0.1587,0.0154,0.0221
12.68,9.559,0.0753,-0.0663,0.2597,-0.0039,-0.0059
12.69,9.8654,0.2167,-0.0942,0.3505,0.0007,-0.0199
12.7,10.0333,0.1871,-0.1108,0.3801,-0.0095,-0.0013
12.71,10.1888,0.1736,0.0168,0.3917,-0.0036,0.0041
12.72,10.2438,0.1198,0.0797,0.4149,0.0268,-0.024
12.73,10.4767,0.1048,0.0495,0.3364,0.0018,-0.0267
12.74,10.7343,0.0144,0.1535,0.2158,0.0027,0.0089
12.75,10.7358,0.0567,0.0599,0.135,-0.0289,-0.0081
12.76,10.9415,-0.0274,0.0473,0.0074,-0.0062,-0.0033
12.77,10.7602,-0.1053,0.0925,-0.1062,-0.0048,-0.0072
12.78,10.6606,-0.1148,0.0789,-0.22,-0.0166,0.0304
12.79,10.4883,-0.1375,0.1013,-0.2876,0.0004,0.0252
12.8,10.3547,-0.0813,-0.0019,-0.365,-0.0086,-0.0247
12.81,10.1411,-0.275,0.0759,-0.4001,0.0016,-0.0107
12.82,10.0148,-0.1369,0.0759,-0.369,0.0024,0.017
12.83,9.8528,-0.1241,-0.0523,-0.3409,-0.0191,0.012
12.84,9.5609,-0.174,-0.0113,-0.2677,-0.008,-0.0008
12.85,9.4081,-0.075,-0.1433,-0.164,0.0015,-0.0228
12.86,9.3117,-0.0504,-0.0453,-0.057,0.0237,-0.0137
12.87,9.5012,0.0418,-0.0463,0.0652,0.0051,-0.0103
12.88,9.4322,0.1651,-0.0462,0.1676,-0.0132,0.0055
12.89,9.4606,0.169,-0.0728,0.2624,0.008,0.0341
12.9,9.8185,0.2007,-0.1959,0.3306,0.0342,-0.0137
12.91,10.1697,0.1745,-0.0521,0.3641,0.0183,-0.0205
12.92,10.1644,0.1248,-0.0213,0.3804,0.011,-0.0022
12.93,10.4206,0.1736,-0.0098,0.3646,0.0145,0.0206
12.94,10.5257,0.2128,0.0708,0.307,0.0288,-0.0289
12.95,10.639,0.0308,0.0635,0.2089,0.0215,0.0291
12.96,10.7986,-0.0006,0.0553,0.0572,0.0113,-0.0034
12.97,10.7233,-0.0012,0.047,0.0164,0.0214,-0.0147
12.98,10.7308,-0.1158,0.0585,-0.1114,-0.0216,-0.032
12.99,10.6426,-0.1592,0.1362,-0.2302,-0.03,0.0141
13.0,10.4239,-0.183,0.0257,-0.2855,0.0031,-0.0034
13.01,10.3827,-0.2577,0.0063,-0.3984,0.0014,0.0034
13.02,10.0965,-0.2486,-0.0203,-0.3621,-0.0109,-0.018
13.03,9.8556,-0.1572,-0.0103,-0.4041,0.0165,-0.0064
13.04,9.7807,-0.2329,-0.0318,-0.3302,-0.0373,-0.0097
13.05,9.5196,-0.2074,-0.2293,-0.2804,-0.0107,-0.002
13.06,9.4926,-0.1075,-0.0414,-0.1516,-0.0097,-0.0134
13.07,9.4427,0.019,-0.0278,-0.0274,-0.0327,-0.0307
13.08,9.5419,0.0326,-0.1502,0.0817,0.0299,0.0546
13.09,9.562,0.0753,-0.1356,0.2114,-0.0272,-0.0273
13.1,9.642,0.148,-0.091,0.2936,-0.0118,0.0036
13.11,9.8695,0.0926,-0.0815,0.3493,0.0182,-0.0354
13.12,10.1011,0.2225,-0.0038,0.3841,0.0129,-0.0399
13.13,10.2291,0.2169,-0.0823,0.4117,-0.0222,0.002
13.14,10.371,0.1594,-0.0122,0.3467,0.0136,0.0035
13.15,10.4253,0.1961,0.1454,0.3099,0.0058,0.0252
13.16,10.565,0.0422,0.0406,0.2215,0.0467,0.008
13.17,10.6946,0.0988,0.1599,0.0514,0.0081,-0.003
13.18,10.6818,-0.0098,0.1174,-0.0125,-0.0028,-0.019
13.19,10.6686,-0.0928,0.002,-0.1107,-0.0171,0.03
13.2,10.5868,-0.1285,0.1088,-0.2499,-0.0149,0.0186
13.21,10.4782,-0.1729,0.0488,-0.323,-0.0165,-0.0249
13.22,10.2516,-0.1314,0.0045,-0.3641,0.0274,0.0008
13.23,10.1016,-0.2538,0.0097,-0.4054,0.0004,0.0029
13.24,9.8747,-0.2275,-0.0084,-0.3752,0.0113,-0.0069
13.25,9.5372,-0.11,-0.0234,-0.3499,0.0303,0.0154
13.26,9.4803,-0.1494,-0.0212,-0.2364,-0.0472,0.0166
13.27,9.4511,-0.0215,-0.0739,-0.1232,0.0256,-0.0038
13.28,9.3284,0.0774,-0.1687,-0.0048,0.0011,-0.0056
13.29,9.4943,0.0321,-0.1202,0.1256,0.0087,0.03
13.3,9.6465,0.1412,0.0627,0.1988,-0.0166,0.0187
13.31,9.7489,0.0948,-0.0285,0.2943,-0.0151,0.0014
13.32,9.7996,0.2218,0.0793,0.406,0.0098,-0.0326
13.33,10.1241,0.209,0.0597,0.395,0.0477,0.0069
13.34,10.2109,0.2196,0.0321,0.3959,0.0201,0.014
13.35,10.3544,0.143,0.0632,0.3492,0.0253,-0.0551
13.36,10.4864,0.0557,0.0702,0.261,-0.0038,0.005
13.37,10.6231,0.1148,0.0025,0.2118,-0.012,-0.0083
13.38,10.6756,-0.0706,0.0996,0.0545,-0.0156,-0.0044
13.39,10.7217,-0.0434,0.1596,-0.0777,-0.0098,-0.0181
13.4,10.6643,-0.0381,0.0605,-0.1793,-0.0411,-0.003
13.41,10.5419,-0.1255,0.0943,-0.3102,-0.0145,0.0278
13.42,10.4236,-0.0754,0.0929,-0.3586,-0.0112,-0.0089
13.43,10.3013,-0.1436,-0.0231,-0.4092,-0.0035,0.0193
13.44,10.0862,-0.2321,-0.0301,-0.3865,0.0026,-0.0161
13.45,9.7001,-0.1846,-0.0877,-0.3854,0.0072,0.0152
13.46,9.4447,-0.1581,-0.1039,-0.2936,-0.0003,0.0
13.47,9.5908,-0.1905,-0.1474,-0.1948,-0.0116,0.007
13.48,9.3225,-0.104,-0.1409,-0.0984,-0.0393,0.0001
13.49,9.3859,-0.0255,-0.029,0.0007,-0.0115,0.0128
13.5,9.3409,-0.04,-0.1409,0.1264,-0.0194,-0.0514
13.51,9.3768,0.1179,-0.0753,0.2005,0.0093,-0.0284
13.52,9.6986,0.1463,-0.0859,0.3149,0.0182,0.0083
13.53,9.8861,0.1041,0.0245,0.3583,0.0188,-0.0409
13.54,9.9694,0.22,0.0605,0.4134,0.0151,-0.0106
13.55,10.0014,0.2295,0.0681,0.4389,-0.0027,-0.0011
13.56,10.3436,0.1816,0.0678,0.3504,-0.0104,-0.0166
13.57,10.5663,0.1151,0.0639,0.2228,-0.0149,-0.0138
13.58,10.5201,0.1102,0.0319,0.1539,-0.0301,0.0054
13.59,10.7029,0.0566,0.1965,0.0476,0.0198,0.0202
13.6,10.6784,-0.0221,0.0602,-0.0732,-0.0035,-0.0192
13.61,10.6598,-0.1354,0.1214,-0.2029,-0.0249,-0.0115
13.62,10.505,-0.1285,0.1232,-0.2797,-0.0165,-0.0146
13.63,10.2584,-0.1179,0.0182,-0.3801,-0.0173,-0.0484
13.64,10.2458,-0.2267,0.0694,-0.4127,0.0009,0.0028
13.65,9.9409,-0.0935,0.0257,-0.3839,0.0213,0.0187
13.66,9.7623,-0.2083,0.045,-0.3844,-0.007,0.0203
13.67,9.525,-0.1476,-0.0901,-0.2876,-0.0451,-0.0174
13.68,9.4384,-0.1365,-0.15,-0.2332,-0.0038,-0.025
13.69,9.3276,-0.0361,-0.1224,-0.0593,-0.0031,0.0004
13.7,9.3661,-0.0746,-0.0894,0.0096,-0.0045,0.0166
13.71,9.557,0.044,-0.0905,0.1381,-0.0125,0.0031
13.72,9.4053,0.069,-0.0983,0.2538,0.0043,0.0058
13.73,9.527,0.1715,-0.1522,0.3181,0.0013,0.0228
13.74,9.9481,0.2407,-0.0062,0.3848,-0.0005,-0.0148
13.75,10.0054,0.2323,0.0986,0.4115,0.0083,-0.0044
13.76,10.1603,0.0724,0.0529,0.4012,-0.0086,0.0327
13.77,10.4714,0.2668,0.0872,0.3452,-0.0097,-0.0039
13.78,10.4807,0.1383,0.1073,0.2437,0.0276,-0.0253
13.79,10.7701,0.0325,0.1133,0.1396,0.0112,-0.0134
13.8,10.7183,0.0204,0.1464,0.0721,0.0165,-0.0188
13.81,10.6065,-0.0385,0.1169,-0.0756,0.0245,0.0071
13.82,10.7426,-0.1362,0.0701,-0.2242,0.0105,-0.0179
13.83,10.3957,-0.1393,0.0268,-0.2964,0.0186,0.0054
13.84,10.3385,-0.2124,0.029,-0.3707,-0.0316,-0.0147
13.85,10.1138,-0.2186,0.0282,-0.3996,0.0041,-0.0425
13.86,9.9974,-0.2312,-0.0333,-0.4184,-0.0037,0.0061
13.87,9.8317,-0.2493,-0.0302,-0.3635,0.0336,0.003
13.88,9.55,-0.135,-0.0483,-0.2484,0.0186,0.0104
13.89,9.3689,-0.0649,-0.0466,-0.1767,-0.0126,-0.0135
13.9,9.3995,-0.0117,-0.0341,-0.1248,0.0075,-0.0156
13.91,9.2997,0.0636,-0.0955,0.0695,0.0034,0.008
13.92,9.5645,0.0968,-0.1569,0.183,0.0091,0.0304
13.93,9.5175,0.1047,-0.0927,0.2554,-0.0204,0.0002
13.94,9.6248,0.2122,-0.0503,0.3547,0.0072,0.0085
13.95,9.847,0.1258,-0.1167,0.3702,-0.0046,-0.0064
13.96,9.9173,0.1547,0.0745,0.3901,0.0056,-0.0309
13.97,10.1372,0.1395,0.0416,0.4055,-0.0145,0.0193
13.98,10.4806,0.2128,0.0799,0.3122,-0.0117,0.0182
13.99,10.4659,0.1627,0.1499,0.1936,0.0235,0.0142
14.0,10.5208,0.0862,0.0636,0.1223,-0.021,-0.0036
14.01,10.6777,0.0561,0.1287,0.0035,-0.0196,0.0119
14.02,10.7012,-0.101,0.0904,-0.09,-0.001,0.0179
14.03,10.5791,-0.0939,0.0739,-0.2225,-0.0154,0.0324
14.04,10.4679,-0.162,0.0242,-0.3198,-0.0177,0.0198
14.05,10.1574,-0.1436,0.1201,-0.351,0.0021,0.0013
14.06,9.9123,-0.2052,-0.0112,-0.3964,-0.0301,-0.0262
14.07,9.9498,-0.2142,0.0125,-0.4048,-0.0202,0.0031
14.08,9.6207,-0.1457,-0.1441,-0.3225,0.0411,0.0051
14.09,9.4729,-0.0913,-0.0148,-0.2663,0.0092,0.0142
14.1,9.4889,-0.1186,-0.0379,-0.1703,-0.0149,0.0271
14.11,9.3699,-0.0306,-0.0942,-0.0516,0.0084,-0.0019
14.12,9.3627,-0.0204,-0.11,0.0436,0.0113,0.042
14.13,9.5581,-0.0352,-0.0694,0.1688,0.0199,-0.0352
14.14,9.4446,0.1488,0.0424,0.2775,-0.0025,0.0084
14.15,9.7238,0.2057,-0.1363,0.3466,0.0195,-0.016
14.16,9.8358,0.2091,0.0191,0.4174,-0.0408,-0.0381
14.17,10.0462,0.1015,-0.0355,0.4023,-0.0211,-0.004
14.18,10.3345,0.1665,0.0381,0.3852,0.0033,-0.0291
14.19,10.4174,0.0416,0.0523,0.3052,0.0066,-0.0032
14.2,10.5464,0.1757,0.063,0.2355,-0.0182,0.0007
14.21,10.6662,-0.0021,0.096,0.1123,0.0052,0.0224
14.22,10.5716,0.0552,0.0432,-0.0148,-0.0125,-0.0302
14.23,10.4954,-0.0193,0.1458,-0.1334,-0.0055,0.0182
14.24,10.3853,-0.1646,-0.0096,-0.2583,0.0205,0.002
14.25,10.1709,-0.2184,0.0858,-0.3135,0.0182,0.0206
14.26,10.3176,-0.1719,0.0158,-0.3796,-0.0199,-0.0086
14.27,9.8709,-0.2422,-0.056,-0.4099,-0.0211,-0.0266
14.28,9.746,-0.1873,-0.0172,-0.3627,-0.0082,-0.0243
14.29,9.5621,-0.1916,-0.1325,-0.36,-0.0005,-0.0258
14.3,9.4615,-0.2165,-0.0751,-0.2634,-0.0132,0.0096
14.31,9.4,-0.1875,-0.1637,-0.1314,0.0208,0.0295
14.32,9.3557,-0.0062,-0.0765,-0.0288,0.0069,-0.0113
14.33,9.2507,0.0143,-0.1439,0.0838,0.0081,0.0126
14.34,9.3519,0.0709,-0.1096,0.2021,-0.0253,-0.0305
14.35,9.5068,0.1806,-0.0538,0.2952,0.0233,0.0036
14.36,9.6234,0.2386,-0.0823,0.3294,-0.0564,0.0134
14.37,9.9566,0.1841,-0.0179,0.3885,0.0167,-0.029
14.38,10.0609,0.1807,-0.0607,0.4278,0.0187,-0.0041
14.39,10.2651,0.2049,0.0753,0.3466,-0.0086,0.0143
14.4,10.4184,0.0779,0.1567,0.2852,0.0255,-0.0587
14.41,10.5782,0.1097,0.2266,0.1863,-0.0013,0.0267
14.42,10.5666,0.07,0.1023,0.0831,0.0012,0.0071
14.43,10.4589,0.0164,0.139,-0.0468,0.0068,0.0143
14.44,10.5467,-0.1728,0.0035,-0.1422,0.0637,-0.0083
14.45,10.3603,-0.1656,0.1522,-0.251,0.0269,-0.0345
14.46,10.2227,-0.2114,0.0935,-0.3195,0.014,0.0107
14.47,10.1324,-0.1874,0.0031,-0.4058,-0.0183,-0.0017
14.48,9.989,-0.1759,0.0593,-0.4067,0.0029,0.0006
14.49,9.6976,-0.1146,-0.0448,-0.3834,-0.0163,0.0218
14.5,9.5454,-0.1866,-0.0817,-0.3145,0.0164,0.0152
14.51,9.5161,-0.1445,-0.0564,-0.255,0.0028,0.0384
14.52,9.3054,-0.0091,-0.1475,-0.1148,-0.0225,0.0031
14.53,9.4559,0.0073,-0.0488,0.0087,0.0016,-0.0138
14.54,9.3132,0.1156,-0.1493,0.0846,-0.017,-0.0038
14.55,9.204,0.1216,-0.1369,0.2045,0.003,0.0083
14.56,9.5316,0.0946,-0.1102,0.2943,-0.0172,0.0203
14.57,9.6662,0.1174,-0.0012,0.4207,0.0005,-0.0293
14.58,9.9262,0.1214,-0.0409,0.3894,0.015,0.0002
14.59,10.0701,0.2291,-0.0474,0.4255,-0.0011,0.0322
14.6,10.1867,0.2347,0.0179,0.3252,-0.0078,-0.0048
14.61,10.253,0.2312,0.0704,0.2577,0.0041,0.0186
14.62,10.4452,0.1318,0.0303,0.1656,0.0139,0.0099
14.63,10.4524,0.0907,0.0411,0.0481,-0.0221,0.0191
14.64,10.4746,-0.0566,0.2046,-0.0605,0.0052,-0.0162
14.65,10.5107,-0.143,0.0475,-0.1845,0.0264,-0.0161
14.66,10.4866,-0.0926,0.0576,-0.2865,0.0115,0.0004
14.67,10.2307,-0.1519,0.032,-0.3224,0.0012,-0.0306
14.68,9.92,-0.1895,0.0014,-0.3653,0.0128,-0.0054
14.69,9.8547,-0.1801,0.0235,-0.3799,0.009,0.0051
14.7,9.7227,-0.1698,0.0106,-0.3614,0.0151,0.0357
14.71,9.4076,-0.0915,-0.0781,-0.3095,-0.0405,0.0081
14.72,9.3119,-0.0466,-0.1449,-0.2327,-0.0311,0.0125
14.73,9.2388,-0.0298,-0.0321,-0.1331,0.0201,0.0233
14.74,9.1461,0.0448,-0.1048,0.0123,-0.0301,-0.0193
14.75,9.2906,0.0875,-0.0086,0.1001,0.008,-0.0033
14.76,9.3148,0.0925,-0.1939,0.2112,-0.007,0.0485
14.77,9.4916,0.1966,-0.051,0.3407,-0.0199,-0.0016
14.78,9.5563,0.118,0.0615,0.4135,0.007,0.0223
14.79,9.7818,0.2524,-0.0227,0.4074,0.004,0.0193
14.8,10.067,0.134,0.0136,0.4096,0.0422,-0.0296
14.81,10.1573,0.1845,0.0673,0.3355,-0.0125,0.0062
14.82,10.4723,0.0891,0.0475,0.2359,0.0288,0.0029
14.83,10.4049,0.1083,0.0759,0.1734,0.007,0.0066
14.84,10.5039,0.0209,0.0825,0.0565,-0.0132,-0.0151
14.85,10.5513,-0.1172,0.0669,-0.0735,0.016,-0.0223
14.86,10.2964,-0.0731,0.1497,-0.1931,0.0113,-0.0095
14.87,10.1503,-0.1712,0.0933,-0.2654,0.0007,-0.002
14.88,10.0093,-0.1336,0.0585,-0.375,0.0053,0.0237
14.89,10.0455,-0.1968,0.0579,-0.4093,-0.0119,0.0363
14.9,9.7032,-0.1787,-0.0258,-0.417,-0.0165,0.0279
14.91,9.7623,-0.2299,-0.0801,-0.3623,0.0152,0.0172
14.92,9.347,-0.1787,-0.0967,-0.3201,-0.0045,-0.0201
14.93,9.2806,-0.1258,-0.0857,-0.2195,-0.0016,-0.0082
14.94,9.3131,-0.0045,-0.1501,-0.1087,0.0056,0.0042
14.95,9.3312,0.0964,-0.1248,0.0199,0.0053,-0.0126
14.96,9.3751,0.031,-0.1192,0.1128,-0.0286,0.0115
14.97,9.4012,0.1774,0.0276,0.2489,0.0257,0.0144
14.98,9.527,0.0562,-0.1954,0.3544,0.0024,0.0107
14.99,9.6662,0.1313,-0.0387,0.3847,-0.0041,0.0205
15.0,9.8723,0.1521,0.0863,0.4308,0.0086,-0.0181
15.01,9.9571,0.1233,0.0358,0.4086,0.0047,0.0187
15.02,10.1095,0.0855,0.0944,0.345,0.0153,-0.0139
15.03,10.3152,0.1442,0.0836,0.2486,0.0108,-0.0188
15.04,10.3962,0.0606,0.0601,0.143,0.0144,0.0106
15.05,10.413,0.0315,-0.0123,0.0404,0.027,0.0243
15.06,10.486,-0.0128,0.1074,-0.1024,0.0177,0.0098
15.07,10.4306,-0.0896,0.047,-0.2434,-0.0032,0.0004
15.08,10.2349,-0.1163,0.0266,-0.2885,-0.0225,0.0062
15.09,10.1806,-0.1855,0.0165,-0.3867,0.0334,0.0027
15.1,9.7813,-0.2578,0.0998,-0.4161,-0.0048,-0.0225
15.11,9.66,-0.144,0.1027,-0.3938,-0.0095,-0.0249
15.12,9.4313,-0.2071,-0.0351,-0.3572,-0.0347,-0.0016
15.13,9.1795,-0.1891,-0.0935,-0.3129,0.0068,0.0016
15.14,9.2035,-0.103,-0.1471,-0.185,0.003,0.0002
15.15,9.1335,-0.0831,-0.0748,-0.0556,-0.0303,0.0135
15.16,9.2551,0.0017,-0.0102,0.0226,0.0091,-0.0043
15.17,9.2336,0.0978,-0.1039,0.1866,-0.01,0.0113
15.18,9.2039,0.1487,-0.1944,0.2314,0.0538,-0.0029
15.19,9.5812,0.1253,-0.019,0.3827,-0.0114,0.0365
15.2,9.7084,0.1693,0.0244,0.3792,-0.0087,0.0016
15.21,9.8498,0.2535,-0.0743,0.4024,-0.0175,0.0468
15.22,9.9746,0.2126,0.0433,0.3377,0.0256,0.007
15.23,10.0852,0.2626,0.0834,0.3164,-0.0075,-0.0043
15.24,10.2658,0.1745,0.078,0.2356,-0.0145,-0.018
15.25,10.4684,0.119,0.0556,0.1219,0.0141,-0.0289
15.26,10.5619,-0.0669,0.1508,-0.0062,-0.0276,-0.0198
15.27,10.5058,-0.0188,0.0757,-0.1329,0.0125,-0.0176
15.28,10.2583,-0.114,0.0088,-0.2001,0.0356,0.0079
15.29,10.0741,-0.1832,-0.0397,-0.3108,0.0113,-0.0105
15.3,10.0043,-0.1776,0.0999,-0.3411,0.0128,0.0037
15.31,9.6594,-0.1522,0.0384,-0.4094,0.0174,0.0256
15.32,9.6302,-0.1699,-0.018,-0.3985,0.0342,-0.0018
15.33,9.4091,-0.2167,-0.0724,-0.3293,0.0242,0.0416
15.34,9.2297,-0.0979,-0.1002,-0.3026,0.0088,-0.0235
15.35,9.0288,-0.117,-0.1443,-0.1946,0.0181,-0.003
15.36,9.14,-0.0167,-0.1206,-0.0332,-0.0177,-0.0108
15.37,9.0569,0.0174,-0.2047,0.0416,0.0155,0.0187
15.38,9.0645,0.0787,-0.1262,0.143,-0.0201,-0.0448
15.39,9.0392,0.177,-0.0876,0.3148,-0.0073,-0.0289
15.4,9.4201,0.1233,-0.0177,0.3226,-0.0617,-0.0021
15.41,9.7455,0.2932,-0.022,0.3956,0.008,0.031
15.42,9.9299,0.1079,0.0498,0.3994,-0.0129,0.0045
15.43,9.9478,0.1542,0.1066,0.3119,0.0222,-0.027
15.44,10.1005,0.171,0.1176,0.2996,0.0078,-0.0239
15.45,10.3126,0.1364,0.108,0.2233,0.0225,0.0335
15.46,10.2721,0.0471,0.0971,0.1114,-0.0217,-0.0124
15.47,10.3964,-0.0104,0.0509,0.003,0.0208,-0.0189
15.48,10.3951,-0.046,0.1313,-0.1409,0.0421,0.0295
15.49,10.3383,-0.1311,0.1641,-0.2249,0.0153,0.0202
15.5,10.0913,-0.0921,0.0759,-0.3374,0.0158,0.0255
15.51,9.9078,-0.1475,0.128,-0.407,0.0034,-0.019
15.52,9.6598,-0.1563,-0.0738,-0.4258,-0.0105,-0.0305
15.53,9.4684,-0.2407,-0.085,-0.4141,0.0152,0.0027
15.54,9.3369,-0.1715,-0.0119,-0.3148,-0.0301,0.0067
15.55,9.2369,-0.1425,-0.0638,-0.2853,-0.0084,0.0073
15.56,9.1784,-0.1262,-0.0268,-0.1464,-0.0354,0.0296
15.57,8.9931,0.0004,-0.1004,-0.0405,-0.0141,-0.0347
15.58,9.1873,0.0155,-0.1411,0.0827,0.0128,0.0172
15.59,9.114,0.1313,-0.0977,0.2244,0.0101,-0.0219
15.6,9.2529,0.0923,-0.1451,0.2828,0.001,0.0171
15.61,9.3539,0.2658,-0.1001,0.372,0.0034,-0.0095
15.62,9.4045,0.1529,0.0336,0.3962,-0.0377,-0.0163
15.63,9.8627,0.2087,0.0587,0.3924,-0.0075,-0.0122
15.64,10.0357,0.2195,0.0619,0.4058,-0.0136,-0.0289
15.65,10.1133,0.1173,-0.0176,0.2628,-0.0132,0.0008
15.66,10.2601,0.1412,0.0691,0.2229,0.012,-0.0155
15.67,10.3639,-0.0191,0.0365,0.0979,-0.0172,0.0157
15.68,10.2082,0.055,0.1584,-0.0447,-0.0121,0.0128
15.69,10.243,-0.0752,0.0633,-0.1193,-0.0417,0.0338
15.7,10.2466,-0.1573,0.0228,-0.2919,-0.0059,0.0073
15.71,9.9354,-0.1825,0.0561,-0.3454,-0.0218,0.0104
15.72,9.8798,-0.152,-0.0047,-0.409,0.0016,0.028
15.73,9.5523,-0.2292,0.0717,-0.3916,-0.019,-0.0126
15.74,9.5042,-0.2269,-0.0688,-0.4011,0.0021,-0.0298
15.75,9.2889,-0.1729,-0.1287,-0.3149,-0.0029,0.004
15.76,9.0219,-0.1784,-0.1878,-0.2429,0.0334,-0.0285
15.77,9.1507,0.0245,-0.0958,-0.1427,0.0099,0.0491
15.78,8.9605,-0.0359,-0.128,-0.0073,-0.0368,0.0291
15.79,8.9748,0.0937,-0.168,0.099,-0.0253,0.0433
15.8,9.1327,0.1176,-0.025,0.1926,0.0011,0.0012
15.81,9.3351,0.1033,-0.0313,0.361,-0.0186,0.011
15.82,9.3265,0.1837,-0.0405,0.3583,-0.0594,-0.0092
15.83,9.6002,0.2382,0.0582,0.3536,0.027,0.0177
15.84,9.823,0.1866,0.0531,0.3751,0.0144,-0.0243
15.85,10.0259,0.2349,0.007,0.3252,0.0104,-0.0509
15.86,10.138,0.1898,0.0201,0.294,-0.0121,-0.0158
15.87,10.2057,0.1356,0.1303,0.1858,0.0086,-0.0291
15.88,10.2276,0.0095,0.1185,0.073,-0.0141,0.0296
15.89,10.3015,-0.0816,0.1075,-0.0625,0.0041,0.0363
15.9,10.1516,-0.1158,0.0482,-0.1759,-0.0184,-0.0281
15.91,9.8933,-0.1253,0.1041,-0.2776,0.0303,0.0258
15.92,10.0084,-0.1455,0.0126,-0.3472,-0.0314,0.019
15.93,9.8626,-0.3035,0.0173,-0.3731,0.0246,-0.0314
15.94,9.4049,-0.1998,0.0648,-0.3921,0.0008,-0.0078
15.95,9.3213,-0.1781,-0.0699,-0.3619,-0.0098,-0.0116
15.96,9.2814,-0.1696,-0.1414,-0.3014,0.0033,0.015
15.97,9.263,-0.0468,-0.1357,-0.2051,0.0147,-0.0246
15.98,9.0154,-0.0359,-0.0461,-0.1082,0.0273,-0.002
15.99,8.927,0.068,-0.0873,0.0122,0.0063,-0.0137
16.0,9.0008,0.051,-0.1015,0.1474,-0.0178,0.0095
16.01,9.2115,0.1624,-0.1071,0.2177,0.0011,-0.0043
16.02,9.1838,0.2406,-0.0365,0.3005,0.0363,-0.0107
16.03,9.3412,0.2533,-0.0769,0.3518,0.027,-0.0043
16.04,9.5563,0.1451,0.0103,0.4032,0.0182,0.0407
16.05,9.7115,0.181,-0.0117,0.3504,0.0159,-0.0083
16.06,9.9758,0.1529,0.0076,0.3496,0.014,-0.0208
16.07,10.2434,0.1558,0.0436,0.2605,0.0232,0.0117
16.08,10.2424,0.1149,0.0728,0.1839,-0.0091,-0.0029
16.09,10.2459,-0.0194,0.0969,0.0317,-0.0271,-0.0283
16.1,10.2339,-0.0341,0.11,-0.079,0.0014,0.0446
16.11,10.0658,-0.1951,-0.0962,-0.1658,-0.0164,-0.007
16.12,10.1433,-0.0702,0.0299,-0.257,-0.0211,-0.0076
16.13,9.9069,-0.2032,0.0264,-0.3689,-0.0144,0.0032
16.14,9.7124,-0.1941,0.0928,-0.3902,0.0497,0.0346
16.15,9.7856,-0.2139,-0.0665,-0.391,0.0027,-0.0336
16.16,9.3648,-0.1247,-0.0333,-0.3566,0.0072,0.0055
16.17,9.1157,-0.2911,0.0082,-0.3036,-0.0244,0.0417
16.18,9.0159,-0.1037,-0.1514,-0.1801,-0.0369,0.0026
16.19,9.0663,-0.0526,-0.0775,-0.1324,-0.0164,-0.0247
16.2,8.965,-0.0101,-0.1399,0.0167,0.0288,-0.0124
16.21,8.8809,0.1576,-0.1187,0.1515,0.0067,0.0041
16.22,9.1644,0.0792,-0.1188,0.2563,0.012,0.0266
16.23,9.1784,0.2033,-0.0933,0.3565,0.0148,-0.0068
16.24,9.556,0.2088,0.1064,0.4059,-0.0118,0.0165
16.25,9.6843,0.2631,0.0422,0.3943,0.0278,-0.0287
16.26,9.7538,0.1576,0.0848,0.4079,-0.0127,-0.0289
16.27,10.0664,0.1281,0.0813,0.3151,0.0281,-0.0097
16.28,10.1104,0.1784,-0.0017,0.2658,0.0088,0.0288
16.29,10.2681,0.0925,0.1132,0.1788,-0.0358,0.0014
16.3,10.2788,-0.0647,0.1534,0.0494,-0.015,0.0058
16.31,10.1539,-0.0743,0.0545,-0.0925,-0.0357,0.0056
16.32,10.0947,-0.0836,0.134,-0.2124,0.0233,0.0222
16.33,10.1028,-0.1073,0.1018,-0.3289,-0.0005,-0.0122
16.34,9.8288,-0.216,0.134,-0.3578,-0.0446,0.0138
16.35,9.6341,-0.3441,-0.0084,-0.4192,0.0075,-0.0166
16.36,9.3935,-0.1708,-0.0724,-0.4097,-0.0107,0.0397
16.37,9.3177,-0.2386,-0.064,-0.3791,-0.0297,-0.016
16.38,9.2895,-0.2432,0.0015,-0.2938,0.0336,-0.0176
16.39,8.9212,-0.2358,-0.1796,-0.1888,0.0021,0.011
16.4,8.9423,0.0032,-0.2016,-0.0695,-0.0059,0.0016
16.41,9.0448,0.029,-0.0949,0.0331,-0.008,0.0065
16.42,8.9752,0.0693,-0.1137,0.1825,-0.0303,0.0045
16.43,9.1212,0.2008,-0.075,0.2585,-0.0261,-0.0218
16.44,9.1478,0.2021,-0.0053,0.3246,0.0257,0.0323
16.45,9.4456,0.2745,-0.0525,0.392,-0.0095,0.0179
16.46,9.5895,0.1301,-0.0886,0.4388,0.0004,0.0272
16.47,9.8735,0.186,0.1367,0.3822,-0.0409,-0.0106
16.48,10.0597,0.078,0.0109,0.3103,-0.0264,0.0083
16.49,10.3062,0.104,0.0287,0.2005,0.0122,0.0039
16.5,10.2319,0.0494,0.1503,0.1192,0.0076,0.0226
16.51,10.2422,0.0338,0.0808,0.0097,0.0351,0.0232
16.52,10.2037,-0.0547,0.0927,-0.1218,0.0269,0.0039
16.53,10.0756,-0.0802,0.1072,-0.2561,-0.0046,-0.0304
16.54,9.998,-0.1205,0.1169,-0.3284,0.0095,0.0356
16.55,9.7775,-0.0782,0.0201,-0.3428,-0.0063,0.0111
16.56,9.6233,-0.2152,0.0835,-0.3702,0.0411,-0.0122
16.57,9.5194,-0.242,-0.1292,-0.4075,0.023,0.0081
16.58,9.1509,-0.1605,-0.0124,-0.3321,0.0034,-0.0302
16.59,9.1695,-0.1752,-0.1157,-0.2937,0.004,0.0211
16.6,9.0739,-0.0111,-0.0219,-0.1422,0.0289,-0.0294
16.61,8.9025,-0.0417,-0.0919,-0.0502,0.0116,-0.0044
16.62,8.7436,0.0042,-0.1323,0.084,0.0312,0.0049
16.63,8.9241,0.0661,-0.0562,0.1451,-0.0439,0.0208
16.64,9.1883,0.1747,-0.0274,0.291,0.0092,0.0021
16.65,9.2368,0.1674,-0.0161,0.3504,-0.0103,0.0127
16.66,9.3411,0.1639,-0.0715,0.409,0.0351,-0.0006
16.67,9.5747,0.2823,-0.0142,0.4163,0.0309,-0.0006
16.68,9.8706,0.1412,0.0389,0.3694,0.0007,0.0017
16.69,10.0123,0.1543,0.0626,0.293,0.0307,-0.0038
16.7,10.0768,0.1398,0.1219,0.2299,0.0357,-0.0337
16.71,10.1444,-0.0294,-0.0042,0.1031,0.0015,-0.0154
16.72,10.1635,0.0165,0.1166,-0.0325,0.0494,0.0049
16.73,10.0836,-0.1193,0.0798,-0.1515,-0.0006,-0.005
16.74,10.1938,-0.0784,0.0382,-0.2687,-0.0043,-0.0031
16.75,9.899,-0.2099,0.0217,-0.3338,0.0173,-0.0065
16.76,9.8478,-0.1548,0.0214,-0.3568,-0.0071,-0.0173
16.77,9.679,-0.1446,-0.1775,-0.3963,0.0017,-0.0099
16.78,9.4426,-0.1493,-0.0624,-0.3954,0.0282,-0.0061
16.79,9.1497,-0.1549,-0.0984,-0.3189,0.0004,0.0001
16.8,9.07,-0.139,-0.0504,-0.2716,-0.0339,0.0079
16.81,8.9345,-0.1048,-0.1328,-0.15,0.0073,-0.0036
16.82,8.8172,0.056,-0.1104,-0.0387,-0.0139,-0.0206
16.83,8.9269,0.0074,-0.0206,0.1004,0.0173,-0.028
16.84,8.8755,0.0467,-0.0373,0.1655,0.0139,0.0519
16.85,9.1847,0.1791,-0.0233,0.2746,0.0294,-0.0226
16.86,9.2126,0.1401,-0.0687,0.327,0.0182,-0.0104
16.87,9.4516,0.1502,0.0121,0.3903,0.0218,0.0103
16.88,9.6528,0.1256,0.0033,0.4197,-0.0134,0.0072
16.89,9.7952,0.1557,0.0339,0.3497,0.0161,0.0104
16.9,10.023,0.1417,0.0889,0.2814,0.0394,-0.0089
16.91,10.058,0.1107,0.0572,0.2145,-0.0138,0.0048
16.92,10.2346,0.09,0.1724,0.1062,0.036,0.0012
16.93,10.0688,0.0088,0.0916,-0.0369,-0.011,-0.0062
16.94,10.1398,-0.0855,0.1234,-0.1382,-0.017,0.0049
16.95,10.1837,-0.1374,0.1498,-0.2765,0.0059,0.0211
16.96,9.8022,-0.142,0.1062,-0.3075,0.0143,-0.0004
16.97,9.6497,-0.1288,-0.0432,-0.3418,0.0182,-0.0003
16.98,9.5506,-0.1936,0.0197,-0.3894,-0.0192,0.0214
16.99,9.331,-0.2129,0.0104,-0.4205,0.0087,0.0192
17.0,9.1707,-0.2114,-0.0142,-0.3348,-0.0137,0.0317
17.01,9.0422,-0.1918,-0.1358,-0.2269,-0.0298,-0.0351
17.02,8.9614,-0.0333,-0.1272,-0.1416,-0.0186,0.0181
17.03,8.9622,0.0214,-0.0502,0.0104,-0.015,0.012
17.04,8.9277,0.081,-0.1346,0.1161,0.0104,-0.0177
17.05,8.9538,0.1007,-0.0994,0.2002,0.023,0.005
17.06,9.1546,0.2228,0.0141,0.3056,-0.0295,0.021
17.07,9.4185,0.1598,-0.0415,0.3502,0.007,-0.0166
17.08,9.4445,0.2468,-0.0464,0.3943,-0.0235,0.0089
17.09,9.5717,0.194,-0.0239,0.3809,0.0126,0.0174
17.1,9.9211,0.1448,0.0648,0.374,-0.0125,-0.0214
17.11,9.9775,0.1684,0.0054,0.3198,-0.021,-0.0028
17.12,9.9257,0.1102,0.077,0.1507,0.016,0.006
17.13,10.2272,0.0504,0.1153,0.0266,-0.0117,-0.0159
17.14,10.1186,-0.0235,0.164,-0.06,-0.0063,-0.0176
17.15,10.0981,-0.0871,0.1239,-0.2007,-0.0444,-0.0027
17.16,10.0228,-0.0156,0.038,-0.2692,0.0189,0.016
17.17,9.859,-0.1136,0.1093,-0.3306,0.0164,0.0129
17.18,9.7186,-0.1588,0.0075,-0.3599,0.0001,-0.0172
17.19,9.4319,-0.1938,-0.0693,-0.3948,-0.0306,0.013
17.2,9.3171,-0.1356,-0.0454,-0.3758,0.0242,-0.0167
17.21,9.0862,-0.1298,0.0091,-0.351,-0.0133,-0.0322
17.22,9.0338,-0.1101,-0.0748,-0.2222,-0.0091,-0.0073
17.23,8.9405,-0.0722,-0.0952,-0.1126,0.0462,0.0225
17.24,8.7892,-0.0015,-0.0181,0.0178,-0.0141,0.0131
17.25,8.9824,-0.0967,-0.1667,0.1094,0.0148,-0.0
17.26,8.9399,0.126,-0.1459,0.2223,0.0112,-0.0083
17.27,9.1826,0.1344,-0.1416,0.288,0.0078,-0.0078
17.28,9.3182,0.2674,-0.0158,0.3297,0.0056,0.0022
17.29,9.627,0.2007,0.0033,0.3773,0.0075,-0.0214
17.3,9.6561,0.1343,0.102,0.356,0.0054,-0.007
17.31,9.8256,0.1677,0.0647,0.3471,-0.001,-0.0043
17.32,10.0006,0.079,0.0552,0.2523,0.0302,-0.027
17.33,10.0824,0.1043,0.0916,0.1504,-0.0263,-0.0168
17.34,10.2214,0.0371,0.1052,0.0255,0.0204,0.0082
17.35,10.0205,0.0104,0.0146,-0.1396,0.0164,0.0002
17.36,10.0004,-0.1337,0.2237,-0.1581,0.014,-0.0062
17.37,9.8823,-0.1406,0.0963,-0.3046,0.0223,-0.0182
17.38,9.8856,-0.2459,0.0565,-0.3635,-0.0019,0.0315
17.39,9.7613,-0.1618,0.0483,-0.4229,-0.0374,-0.0168
17.4,9.4208,-0.1725,0.0229,-0.3774,-0.0014,0.005
17.41,9.2276,-0.1572,-0.0485,-0.3612,-0.0198,-0.0098
17.42,9.0831,-0.1491,-0.0982,-0.3149,-0.0146,0.0007
17.43,9.0458,-0.0821,-0.0558,-0.2136,-0.0248,0.0092
17.44,8.8045,0.0329,-0.0779,-0.061,-0.0095,-0.0274
17.45,8.8805,-0.0017,-0.1403,0.0237,-0.0119,-0.0001
17.46,8.9808,0.0782,-0.0225,0.1389,-0.0476,0.0238
17.47,9.0391,0.0693,-0.064,0.2283,0.014,0.0352
17.48,9.1565,0.1213,-0.0202,0.2915,0.0444,-0.0026
17.49,9.397,0.1959,0.0399,0.3787,0.0121,0.0008
17.5,9.2937,0.2552,0.0011,0.4065,-0.0041,0.0442
17.51,9.7573,0.1782,0.0456,0.4039,-0.0011,0.0227
17.52,9.8264,0.1529,0.0972,0.2844,-0.0084,-0.0123
17.53,9.8747,0.1032,0.0424,0.2246,0.0018,-0.0124
17.54,10.1583,0.0445,0.0961,0.1309,-0.0007,0.0191
17.55,10.2688,0.0273,0.1061,0.025,-0.0168,-0.0202
17.56,10.1308,-0.1222,0.0494,-0.0975,0.0337,0.0218
17.57,10.1439,-0.0388,0.2016,-0.2082,-0.0297,0.0067
17.58,10.0723,-0.1825,-0.0038,-0.2902,0.0144,0.0104
17.59,9.885,-0.1459,-0.0235,-0.3821,-0.002,-0.0051
17.6,9.7233,-0.2619,0.0782,-0.3782,0.038,-0.0126
17.61,9.4563,-0.1635,0.0182,-0.3852,0.0068,0.0292
17.62,9.2182,-0.144,-0.0973,-0.3617,-0.0072,-0.0049
17.63,8.9261,-0.1231,-0.0399,-0.2526,-0.005,-0.0082
17.64,8.918,-0.1439,-0.0148,-0.1572,0.0008,-0.0016
17.65,8.8054,-0.025,-0.0997,-0.0563,-0.0229,0.0039
17.66,9.0393,-0.0366,0.0306,-0.0152,-0.0153,-0.0206
17.67,8.9027,0.0679,-0.1777,0.1927,-0.0357,-0.0113
17.68,9.0315,0.1828,-0.0407,0.2785,-0.0185,-0.0124
17.69,9.2149,0.21,0.0058,0.3805,0.0019,0.0169
17.7,9.3542,0.1945,0.0197,0.4122,0.006,-0.0177
17.71,9.6809,0.151,-0.0052,0.4311,-0.0396,-0.0351
17.72,9.6871,0.22,0.0199,0.3931,-0.0027,-0.0393
17.73,9.9239,0.1598,0.083,0.3446,0.0113,-0.0294
17.74,9.9846,-0.0005,0.1224,0.2709,-0.0033,0.0272
17.75,10.0263,0.1009,0.1252,0.1279,-0.0127,0.0003
17.76,10.115,0.0013,0.152,-0.0264,-0.0082,0.01
17.77,10.1344,0.0031,0.0449,-0.1202,-0.0108,0.0107
17.78,10.0202,-0.1661,0.0717,-0.215,-0.0127,0.0011
17.79,9.8676,-0.3145,0.0158,-0.3099,0.0035,-0.0015
17.8,9.6421,-0.172,0.0175,-0.3968,0.0462,0.0209
17.81,9.558,-0.1849,0.0583,-0.4315,-0.0149,0.0029
17.82,9.2499,-0.2794,-0.017,-0.4046,-0.0064,0.028
17.83,9.2499,-0.2217,0.08,-0.3294,-0.001,0.0124
17.84,9.044,0.0027,-0.0641,-0.2385,-0.0137,-0.0124
17.85,8.8125,-0.1004,-0.0875,-0.152,0.022,-0.0099
17.86,8.8491,0.009,-0.0937,-0.034,-0.0474,-0.0145
17.87,8.8166,-0.0,-0.1306,0.0634,-0.0106,0.0244
17.88,8.963,-0.0148,-0.0923,0.1445,0.0164,-0.0081
17.89,9.158,0.1302,-0.0156,0.2684,-0.0059,-0.016
17.9,9.0563,0.162,-0.0425,0.3453,-0.0164,0.0064
17.91,9.3993,0.176,-0.0596,0.382,0.0088,-0.0019
17.92,9.5728,0.1933,-0.0362,0.3991,0.0181,0.0059
17.93,9.829,0.1973,0.0166,0.3769,0.0042,0.0378
17.94,9.959,0.145,0.0684,0.322,-0.016,0.0183
17.95,10.0106,0.044,0.1441,0.2088,0.0091,0.0005
17.96,10.1244,0.0765,0.0295,0.0663,-0.008,-0.0282
17.97,10.1088,-0.105,0.0839,-0.0247,0.0149,-0.01
17.98,10.2226,-0.1691,0.1015,-0.1323,0.0297,0.0142
17.99,10.0468,-0.0826,-0.0115,-0.2147,-0.0521,-0.0234
18.0,10.0588,-0.1365,0.0171,-0.335,0.0022,0.0428
18.01,9.729,-0.1923,-0.0019,-0.3686,-0.0347,0.0003
18.02,9.4855,-0.2697,-0.0373,-0.3941,0.0488,0.001
18.03,9.228,-0.2278,-0.0177,-0.3839,-0.0094,-0.0133
18.04,9.0277,-0.1806,-0.0627,-0.3164,0.0149,0.0099
18.05,8.9002,-0.2073,-0.1048,-0.2682,-0.0007,-0.0232
18.06,8.9484,-0.1129,-0.0711,-0.1634,-0.0161,0.0433
18.07,8.9222,0.015,-0.0135,-0.0354,-0.0184,0.0263
18.08,8.768,0.1138,-0.0158,0.072,0.0317,0.0197
18.09,9.0364,0.0776,-0.1832,0.2073,0.0191,-0.0278
18.1,9.0475,0.1836,-0.0396,0.2773,0.0389,0.0041
18.11,9.2594,0.0842,-0.0526,0.3643,0.0011,0.0242
18.12,9.5638,0.2307,-0.0073,0.3935,0.0058,0.0119
18.13,9.7026,0.1575,-0.0049,0.3998,-0.0053,-0.02
18.14,9.7966,0.1952,0.0496,0.3506,-0.0057,-0.013
18.15,9.9083,0.1334,0.076,0.2848,-0.0208,-0.009
18.16,9.9289,0.1646,0.0581,0.199,0.0017,-0.0121
18.17,10.1139,-0.0013,0.0529,0.0888,-0.0158,0.0306
18.18,10.1676,0.0138,0.0772,-0.0352,0.0088,-0.0384
18.19,10.0601,-0.0899,0.1042,-0.1178,0.0034,0.0131
18.2,10.0289,-0.1354,0.107,-0.2748,0.0058,-0.0258
18.21,9.9007,-0.1767,0.0973,-0.3363,0.0335,-0.0192
18.22,9.6996,-0.2347,0.0026,-0.4163,-0.0008,-0.0402
18.23,9.4727,-0.2006,0.0117,-0.3924,0.0151,-0.011
18.24,9.3467,-0.1926,0.016,-0.4011,0.041,0.0302
18.25,9.196,-0.1497,-0.0005,-0.3292,0.0261,0.0053
18.26,8.9353,-0.1154,-0.0831,-0.2466,0.0231,-0.024
18.27,9.0444,-0.0267,-0.1053,-0.1275,-0.0061,0.0203
18.28,8.8879,0.0386,-0.0904,-0.0261,0.0046,0.0246
18.29,8.9202,-0.0004,-0.154,0.0924,-0.0264,0.0021
18.3,9.055,0.1506,-0.0941,0.243,0.01,0.0407
18.31,9.1461,0.0932,-0.0275,0.3107,0.0055,0.0164
18.32,9.3708,0.2134,-0.007,0.3569,0.0005,0.0137
18.33,9.5076,0.23,-0.0235,0.393,0.0205,-0.0161
18.34,9.6316,0.1004,0.0309,0.4248,-0.0242,0.0125
18.35,9.8938,0.1799,0.0069,0.3458,0.0327,0.0043
18.36,9.9294,0.1153,0.1072,0.2637,0.018,0.0104
18.37,10.1434,0.0517,0.0855,0.1657,-0.0014,-0.0137
18.38,10.1934,0.1001,0.0849,0.0541,-0.003,0.0026
18.39,10.1828,-0.0602,0.081,-0.067,0.0096,-0.0163
18.4,10.1346,-0.1255,0.0873,-0.1959,0.0304,-0.0429
18.41,9.8866,-0.1313,0.0514,-0.2926,0.002,0.02
18.42,9.8422,-0.1385,0.0833,-0.3622,0.0029,-0.03
18.43,9.713,-0.202,0.0027,-0.378,0.0004,0.0021
18.44,9.5246,-0.1411,0.0721,-0.4065,0.0356,0.0067
18.45,9.2404,-0.1594,0.0364,-0.3761,-0.0074,0.0065
18.46,9.2562,-0.2646,-0.1073,-0.286,-0.0006,-0.0057
18.47,8.9548,-0.1378,-0.0796,-0.1969,0.0293,0.0054
18.48,9.0196,-0.0851,-0.1284,-0.1197,0.0029,0.0094
18.49,8.9504,0.0265,-0.1163,-0.0076,0.0227,0.0147
18.5,8.8974,-0.0694,0.005,0.1063,-0.0182,0.0347
18.51,9.1798,0.243,-0.097,0.2449,-0.0041,0.0047
18.52,9.0789,0.1853,-0.0428,0.3135,0.0297,0.0013
18.53,9.4202,0.1952,-0.0074,0.3678,-0.0135,-0.0181
18.54,9.6192,0.2588,-0.0551,0.3832,-0.003,0.0087
18.55,9.681,0.3109,-0.0179,0.372,0.0051,0.0133
18.56,10.0269,0.2137,-0.0078,0.3468,-0.0198,-0.0038
18.57,10.0455,0.1788,0.0311,0.2363,-0.0083,0.0109
18.58,10.1945,0.0871,-0.051,0.1811,0.0023,-0.0059
18.59,10.2443,0.0155,0.1266,0.0345,0.0009,0.0134
18.6,10.2066,-0.0613,0.2009,-0.0779,0.0256,0.0183
18.61,10.2184,-0.1354,0.0956,-0.215,0.0308,0.018
18.62,10.1015,-0.1767,-0.0005,-0.2849,-0.0171,0.0024
18.63,9.7413,-0.2452,0.0138,-0.3618,0.0022,-0.0208
18.64,9.8018,-0.2007,-0.0054,-0.3948,0.0135,-0.0122
18.65,9.3705,-0.2827,-0.0634,-0.3674,0.0303,0.0119
18.66,9.3995,-0.1725,0.0016,-0.3605,0.0144,0.049
18.67,9.2447,-0.151,-0.0261,-0.3143,0.0058,-0.0068
18.68,8.9441,-0.0955,-0.1435,-0.22,0.0133,0.0091
18.69,8.9256,-0.0734,-0.0609,-0.0827,0.0135,-0.0111
18.7,8.8541,0.1664,-0.0235,0.0511,-0.0186,-0.0195
18.71,8.9681,0.1393,0.0017,0.1482,0.0039,-0.0135
18.72,9.0582,0.0613,0.0646,0.2609,0.0292,-0.0416
18.73,9.2889,0.1763,-0.1018,0.3416,-0.0041,0.0271
18.74,9.5083,0.1606,0.1115,0.4103,0.0026,-0.0446
18.75,9.7095,0.1493,-0.0177,0.361,-0.0049,-0.0053
18.76,9.7473,0.124,0.0001,0.3953,-0.0463,-0.0236
18.77,9.9525,0.1863,0.0731,0.3491,0.0004,-0.0177
18.78,9.9783,0.0895,0.0495,0.2204,0.006,0.0275
18.79,10.1461,0.1197,0.1134,0.1249,-0.0102,0.004
18.8,10.3305,0.0622,0.0338,0.0081,-0.0231,-0.0193
18.81,10.3668,0.0214,0.0852,-0.1092,-0.0176,-0.0118
18.82,10.066,-0.1455,0.15,-0.2154,0.0153,-0.0153
18.83,9.9943,-0.1254,0.0637,-0.2935,0.0395,-0.0009
18.84,9.8774,-0.1504,0.0485,-0.3467,0.0276,0.0035
18.85,9.7155,-0.2221,0.0363,-0.3752,-0.0269,0.0379
18.86,9.4345,-0.2355,0.041,-0.4106,0.0171,-0.0383
18.87,9.3496,-0.0972,-0.1287,-0.3721,-0.0133,-0.0007
18.88,9.1213,-0.1309,-0.041,-0.2583,-0.0116,-0.0063
18.89,9.0427,-0.0623,-0.1016,-0.1753,-0.0092,0.0189
18.9,9.024,-0.0786,-0.0899,-0.0733,0.0141,0.0071
18.91,8.9749,-0.0384,-0.0464,0.0546,0.0192,0.0118
18.92,8.9919,0.0521,-0.1512,0.1606,-0.002,0.0069
18.93,9.1241,0.1251,-0.1261,0.2731,-0.0016,-0.0186
18.94,9.2762,0.117,-0.1493,0.3337,0.0093,0.0242
18.95,9.4349,0.1932,-0.0523,0.3928,0.0114,0.016
18.96,9.6396,0.1153,0.0715,0.3693,0.0235,0.0183
18.97,9.981,0.1317,0.0284,0.3617,-0.0257,0.0253
18.98,10.0707,0.1923,-0.0062,0.3041,0.0004,0.0084
18.99,10.1391,0.1457,0.0573,0.2235,-0.0214,0.0296
19.0,10.3076,0.0422,0.0207,0.1051,-0.001,0.0076
19.01,10.2584,-0.0484,0.0437,-0.0056,-0.0045,-0.0044
19.02,10.3536,-0.1084,0.1153,-0.1443,-0.0009,-0.0001
19.03,10.2077,-0.13,0.0244,-0.2118,-0.016,-0.0005
19.04,10.0392,-0.1235,0.1184,-0.313,-0.0297,-0.0104
19.05,9.9165,-0.1395,0.0333,-0.406,-0.0419,0.0326
19.06,9.5662,-0.2243,0.0118,-0.4156,-0.0026,0.0059
19.07,9.4086,-0.2526,-0.0363,-0.3831,-0.0086,0.0019
19.08,9.2232,-0.1594,-0.0117,-0.3564,-0.0135,0.0078
19.09,9.1797,-0.1762,-0.0346,-0.2841,0.0265,0.0596
19.1,9.1997,-0.1111,-0.0737,-0.1718,-0.0172,-0.0226
19.11,9.1856,0.0387,-0.0708,-0.0482,0.0283,-0.0169
19.12,9.0621,0.0739,-0.1093,0.0363,0.0325,-0.0276
19.13,9.1131,0.0976,-0.0623,0.1904,-0.039,-0.0047
19.14,9.0434,0.0751,-0.0889,0.2615,0.0018,0.0049
19.15,9.3007,0.1858,-0.0481,0.3502,-0.008,-0.0093
19.16,9.4661,0.2491,-0.0337,0.3912,-0.0582,-0.0108
19.17,9.6761,0.1802,-0.0128,0.3874,-0.0289,0.0028
19.18,9.9031,0.2516,0.0047,0.3476,0.0155,-0.01
19.19,10.0466,0.2171,0.0881,0.2993,0.0404,0.0062
19.2,10.0559,0.1904,0.15,0.2468,0.0181,0.0223
19.21,10.3545,0.0674,0.1551,0.0771,0.0065,0.0135
19.22,10.2325,0.0218,0.0371,0.0188,-0.0004,0.0176
19.23,10.3025,0.0041,0.1588,-0.1383,0.0337,0.0217
19.24,10.3591,-0.0972,0.0642,-0.2385,0.043,0.0057
19.25,9.9823,-0.1869,0.0888,-0.3453,-0.0117,-0.0032
19.26,9.6817,-0.2118,-0.0132,-0.3943,-0.04,-0.0154
19.27,9.6706,-0.188,0.0096,-0.4099,-0.042,-0.0078
19.28,9.5895,-0.2569,-0.0116,-0.4057,0.0264,-0.0105
19.29,9.4821,-0.1747,-0.1289,-0.3392,-0.0009,0.0146
19.3,9.0831,-0.0727,-0.0466,-0.2631,0.0037,0.0069
19.31,9.1224,-0.1855,-0.0252,-0.1149,-0.0358,0.0139
19.32,9.001,0.0592,-0.1083,-0.0585,-0.0151,-0.0232
19.33,9.0437,0.0985,-0.0297,0.0869,-0.0059,0.0286
19.34,9.3351,0.0756,-0.0965,0.202,0.0042,-0.0085
19.35,9.1257,0.173,-0.026,0.2702,-0.008,-0.022
19.36,9.4288,0.18,-0.1546,0.3735,-0.0207,-0.0088
19.37,9.6341,0.2592,0.1059,0.3875,-0.0157,0.0497
19.38,9.8806,0.2469,0.0898,0.3456,0.0242,-0.0078
19.39,9.9898,0.1099,0.0295,0.373,0.0049,-0.0065
19.4,10.1692,0.1752,-0.0301,0.2692,0.0122,-0.0038
19.41,10.2356,0.0883,0.1014,0.1761,-0.018,-0.003
19.42,10.3598,0.0465,0.0255,0.0986,-0.0591,-0.0156
19.43,10.3249,-0.054,0.1219,-0.0421,-0.0105,0.0029
19.44,10.3576,0.0115,0.1131,-0.1336,-0.0173,0.0215
19.45,10.1796,-0.0755,0.03,-0.2308,0.007,0.0063
19.46,10.0955,-0.2045,0.1107,-0.3479,0.0657,-0.0222
19.47,9.887,-0.2591,0.0676,-0.3689,0.0139,-0.0069
19.48,9.7875,-0.2192,0.0463,-0.415,0.0547,-0.011
19.49,9.5028,-0.1677,-0.0317,-0.3342,0.0114,0.0011
19.5,9.1934,-0.1498,-0.1296,-0.3375,-0.0126,0.0266
19.51,9.299,-0.0569,-0.0313,-0.2186,0.007,-0.003
19.52,9.0355,-0.0271,-0.1078,-0.1163,0.0356,-0.0018
19.53,9.0208,0.0409,-0.1694,-0.0088,0.0366,0.0356
19.54,9.0493,0.0685,-0.0289,0.0909,-0.0115,0.0175
19.55,9.2874,0.0377,0.0205,0.2113,0.0051,0.0115
19.56,9.1367,0.1427,-0.0668,0.2619,-0.0286,0.0392
19.57,9.7266,0.2371,0.0688,0.3726,0.0165,0.0098
19.58,9.751,0.1964,-0.0055,0.405,0.0311,-0.0397
19.59,9.8812,0.2211,0.0009,0.3946,0.0008,0.0167
19.6,10.0441,0.1593,0.0167,0.2911,-0.0133,-0.0318
19.61,10.2283,0.0872,0.1539,0.2521,0.0072,0.009
19.62,10.3617,0.0835,0.0504,0.1644,0.0083,-0.0343
19.63,10.4338,0.048,0.1354,0.0709,0.0016,-0.0093
19.64,10.431,-0.0603,0.0711,-0.0493,0.0036,-0.0073
19.65,10.3399,-0.0969,0.0675,-0.1737,-0.0035,-0.0154
19.66,10.21,-0.182,0.1253,-0.2574,0.0199,-0.007
19.67,10.0635,-0.1168,0.0314,-0.3661,0.0147,0.0207
19.68,9.8803,-0.2096,0.0022,-0.3776,-0.0197,-0.0143
19.69,9.7937,-0.1268,0.0491,-0.3894,-0.0202,0.0109
19.7,9.562,-0.1095,0.0431,-0.3644,-0.0051,-0.0193
19.71,9.1124,-0.1597,-0.0305,-0.315,0.0147,-0.0038
19.72,9.2701,-0.1618,-0.1158,-0.1861,0.003,0.0065
19.73,9.1519,-0.1613,-0.1214,-0.1041,-0.0129,-0.0199
19.74,9.1098,-0.0711,-0.096,-0.0143,0.0052,-0.0262
19.75,9.1138,-0.0069,-0.0791,0.1286,-0.0066,0.0098
19.76,9.3242,0.1844,-0.131,0.2461,0.0176,0.0225
19.77,9.4474,0.1646,-0.0246,0.3058,0.0067,-0.0016
19.78,9.4828,0.2072,-0.0302,0.3973,-0.0063,-0.0091
19.79,9.7704,0.0887,-0.0908,0.4071,0.0046,0.0031
19.8,9.8563,0.1338,-0.0216,0.3406,0.0263,0.0011
19.81,10.0053,0.2146,0.0273,0.3464,-0.0114,0.0049
19.82,10.2163,0.1457,0.0718,0.2545,0.0081,-0.0506
19.83,10.4419,0.0732,0.186,0.1719,-0.0014,-0.0214
19.84,10.502,0.0508,0.1113,0.064,0.0085,-0.0169
19.85,10.4613,0.0443,0.0562,-0.071,-0.0131,0.003
19.86,10.4151,-0.1052,0.0993,-0.155,0.0022,0.0037
19.87,10.2835,-0.1388,0.0527,-0.2882,0.0222,0.0127
19.88,10.0348,-0.168,0.0622,-0.3428,-0.0187,0.0052
19.89,9.9376,-0.0773,0.0465,-0.3777,-0.0266,-0.026
19.9,9.7737,-0.3034,0.0479,-0.3988,-0.0258,0.0289
19.91,9.584,-0.1479,-0.0427,-0.3485,-0.0234,0.0254
19.92,9.4571,-0.1549,0.0153,-0.3103,0.0119,-0.0252
19.93,9.2961,-0.0745,-0.0404,-0.2142,-0.0281,0.0067
19.94,9.1952,-0.0802,-0.1325,-0.1208,-0.006,-0.0119
19.95,9.2375,0.0101,0.0107,0.0299,0.0124,0.0028
19.96,9.193,0.1069,-0.0771,0.1491,0.0083,0.0211
19.97,9.2227,0.2792,-0.1204,0.2707,-0.0077,0.0426
19.98,9.4245,0.2051,0.0259,0.3452,0.0038,0.015
19.99,9.5554,0.1486,0.0742,0.3762,0.0021,0.0059
20.0,9.756,0.1788,-0.0017,0.3764,-0.0045,-0.0068
20.01,9.9934,0.1683,0.0045,0.3906,-0.0042,0.0036
20.02,10.1191,0.0749,0.0481,0.3516,0.0447,0.0272
20.03,10.3021,0.1071,0.1144,0.2622,0.0162,-0.0009
20.04,10.2734,0.1079,0.1573,0.1643,0.0496,-0.0177
20.05,10.4852,-0.0512,0.1283,0.0209,-0.0099,-0.0324
20.06,10.453,0.0051,0.1022,-0.1039,-0.0017,0.0103
20.07,10.3152,-0.0785,0.1607,-0.2205,-0.0266,0.0049
20.08,10.3107,-0.1859,0.051,-0.2995,-0.0162,-0.0129
20.09,10.1713,-0.1891,0.093,-0.3656,0.038,0.0205
20.1,9.7817,-0.1185,-0.0019,-0.3927,-0.0104,-0.0084
20.11,9.6559,-0.1602,0.004,-0.3964,0.0384,-0.0027
20.12,9.4723,-0.1772,-0.0516,-0.3579,-0.0249,-0.0003
20.13,9.3026,-0.1542,-0.0731,-0.3001,-0.0211,-0.007
20.14,9.3292,-0.0903,-0.1071,-0.1694,-0.0068,0.0047
20.15,9.1842,-0.0631,-0.031,-0.0734,-0.0013,0.023
20.16,9.1731,-0.0827,-0.136,0.0417,0.0185,-0.0228
20.17,9.0868,0.1827,-0.1285,0.1462,0.009,0.0098
20.18,9.4044,0.1391,0.0306,0.236,-0.0083,0.0034
20.19,9.4052,0.1901,-0.0036,0.3666,-0.0027,0.0031
20.2,9.6907,0.1908,-0.1441,0.3985,-0.0064,0.0174
20.21,9.9043,0.163,-0.0232,0.367,-0.0183,0.001
20.22,10.1842,0.1785,-0.0561,0.3908,-0.0178,0.0096
20.23,10.1437,0.0788,0.0133,0.336,0.0206,0.0143
20.24,10.1441,0.2294,-0.0753,0.2335,-0.0366,-0.0101
20.25,10.4898,0.0001,0.0883,0.1556,0.0323,0.006
20.26,10.6528,-0.0491,0.0429,0.0094,-0.0069,-0.005
20.27,10.5828,-0.079,0.0988,-0.1423,-0.0155,-0.0027
20.28,10.4192,-0.047,0.0018,-0.2154,0.0148,-0.0064
20.29,10.233,-0.155,0.0669,-0.3065,0.0297,0.0094
20.3,10.1701,-0.2478,0.0161,-0.384,0.0224,0.0016
20.31,9.8391,-0.1367,0.0826,-0.3874,0.01,0.0079
20.32,9.7622,-0.1584,0.0481,-0.4232,0.0217,-0.0004
20.33,9.5848,-0.1459,-0.0111,-0.3258,-0.0343,-0.0321
20.34,9.479,-0.0993,-0.0901,-0.2877,-0.0104,0.0006
20.35,9.5081,0.0346,0.0088,-0.19,-0.0182,0.0013
20.36,9.2649,0.0817,-0.1767,-0.0574,0.0245,0.0049
20.37,9.1971,-0.0018,-0.1688,0.0737,-0.0077,-0.0119
20.38,9.2979,0.1709,-0.0936,0.1826,0.0169,-0.0239
20.39,9.2731,0.1579,0.0407,0.2626,0.0107,0.0125
20.4,9.5159,0.2002,-0.0583,0.3404,-0.0172,-0.0055
20.41,9.7239,0.1114,-0.0291,0.3693,-0.0117,0.0034
20.42,9.9116,0.1905,-0.0621,0.3935,0.0259,-0.0056
20.43,10.1567,0.1434,0.0864,0.3896,-0.0155,-0.0001
20.44,10.2467,0.1939,0.1124,0.3049,0.0025,-0.009
20.45,10.5322,0.1607,0.1239,0.2315,-0.0157,-0.0194
20.46,10.523,-0.0516,0.0651,0.1334,-0.0063,0.0095
20.47,10.5461,-0.0086,0.0646,-0.0268,-0.0009,-0.0121
20.48,10.4858,-0.0105,0.0296,-0.1369,-0.0157,0.0033
20.49,10.4343,-0.1289,0.0844,-0.1957,-0.0192,0.0082
20.5,10.3508,-0.1254,0.0048,-0.2947,0.0057,-0.0117
20.51,10.0437,-0.1719,-0.0268,-0.4123,-0.0169,-0.0241
20.52,9.87,-0.1829,-0.0187,-0.3921,-0.0162,0.0485
20.53,9.7063,-0.206,-0.0518,-0.3848,-0.0188,-0.0106
20.54,9.447,-0.2283,-0.0815,-0.3185,-0.0016,0.0125
20.55,9.3452,-0.1836,-0.0537,-0.2699,0.0189,0.0388
20.56,9.274,-0.0405,-0.0886,-0.1687,0.0301,0.0158
20.57,9.3376,-0.0166,-0.114,-0.0487,-0.0145,-0.006
20.58,9.3027,0.0355,-0.0886,0.0734,0.043,-0.0013
20.59,9.3686,0.0774,-0.1366,0.2134,-0.0201,-0.0167
20.6,9.5436,0.1305,-0.0632,0.268,0.0217,0.0176
20.61,9.6271,0.2322,-0.0362,0.3473,-0.0144,0.0113
20.62,9.8575,0.181,-0.0902,0.3597,-0.0174,-0.0103
20.63,10.0151,0.1307,0.0648,0.4156,-0.0149,-0.0208
20.64,10.2328,0.2171,-0.0004,0.3852,-0.001,-0.0264
20.65,10.3275,0.1355,0.073,0.285,0.0116,0.0197
20.66,10.3014,0.1001,0.1452,0.1911,0.0134,0.0024
20.67,10.5571,0.1228,0.144,0.0939,-0.0189,0.0043
20.68,10.6956,-0.0186,0.1013,-0.0057,-0.0198,-0.0165
20.69,10.6114,-0.0615,0.0744,-0.1437,-0.0183,-0.0293
20.7,10.5158,-0.1864,0.1244,-0.2689,-0.0022,0.0193
20.71,10.3935,-0.1785,0.0884,-0.3674,-0.0042,0.0008
20.72,10.1256,-0.1619,-0.0036,-0.4071,-0.019,0.0181
20.73,9.9423,-0.2777,-0.0423,-0.3984,0.0054,-0.0077
20.74,9.6865,-0.1794,-0.1357,-0.3919,0.0453,-0.0047
20.75,9.5389,-0.1568,-0.0511,-0.3197,-0.0101,0.0143
20.76,9.4761,-0.1175,-0.0843,-0.2502,-0.0087,0.0146
20.77,9.4329,-0.0147,-0.0375,-0.1543,0.0112,0.016
20.78,9.2905,0.0092,-0.082,-0.0386,-0.0112,-0.0059
20.79,9.2894,0.1261,-0.0298,0.1356,0.0134,0.0123
20.8,9.4058,0.0575,-0.1193,0.2321,-0.0144,0.0222
20.81,9.5837,0.1593,-0.0078,0.3396,0.0366,-0.0021
20.82,9.5879,0.1883,-0.0656,0.3789,0.0069,-0.0103
20.83,9.7105,0.1455,0.0288,0.3894,-0.0124,0.0269
20.84,10.0469,0.2438,-0.053,0.4184,-0.0118,-0.0131
20.85,10.1782,0.2915,0.0599,0.3499,-0.0103,0.0126
20.86,10.3919,0.1379,-0.0272,0.2819,0.0275,-0.0012
20.87,10.5351,0.1149,0.076,0.1785,-0.0254,-0.0368
20.88,10.5726,0.0368,0.1207,0.0061,-0.0134,0.0226
20.89,10.7292,-0.0632,0.073,-0.023,-0.0112,-0.0552
20.9,10.585,-0.1762,0.038,-0.1605,-0.0003,-0.0397
20.91,10.4758,-0.1704,0.1161,-0.2635,-0.0054,0.0105
20.92,10.351,-0.2424,0.0452,-0.3468,-0.0298,0.0105
20.93,10.0302,-0.1097,-0.0021,-0.3865,-0.008,-0.0128
20.94,10.0112,-0.2052,-0.0054,-0.4108,-0.002,0.003
20.95,9.7333,-0.2033,0.095,-0.3596,-0.0126,-0.0506
20.96,9.6258,-0.1112,-0.0051,-0.3375,0.0137,0.0141
20.97,9.3561,-0.1675,-0.0249,-0.219,0.0184,0.005
20.98,9.2359,-0.0953,-0.0741,-0.1028,-0.0016,-0.0009
20.99,9.4003,0.0059,-0.0917,0.0011,0.0046,0.0004
21.0,9.3983,0.1132,-0.2149,0.131,-0.0432,0.0099
21.01,9.3851,0.1406,-0.1156,0.2112,-0.0084,-0.0006
21.02,9.5246,0.1712,-0.0848,0.2983,0.0201,-0.0375
21.03,9.8569,0.1917,-0.1282,0.3802,-0.0085,0.0439
21.04,9.8646,0.2198,-0.0629,0.4131,-0.0147,0.024
21.05,10.2869,0.2038,-0.0742,0.3499,0.0456,-0.0257
21.06,10.2647,0.1187,0.0506,0.3508,0.0364,-0.0069
21.07,10.5382,0.1336,0.1164,0.2518,0.0094,-0.0047
21.08,10.5669,0.0269,0.1469,0.1573,0.0228,0.0216
21.09,10.6939,0.0266,0.1201,0.0184,-0.0445,-0.0432
21.1,10.5962,-0.0615,0.0501,-0.092,-0.0158,-0.01
21.11,10.5631,0.0328,-0.0084,-0.169,-0.0094,-0.0352
21.12,10.4641,-0.1443,-0.0176,-0.284,-0.0047,-0.0057
21.13,10.2241,-0.2478,-0.0175,-0.3629,-0.0098,-0.0095
21.14,10.18,-0.2036,-0.0269,-0.3962,-0.051,0.0016
21.15,9.8859,-0.1725,-0.0205,-0.3871,0.0077,-0.0121
21.16,9.7222,-0.0984,-0.0921,-0.3552,0.0109,-0.015
21.17,9.4988,-0.1787,-0.0497,-0.2999,0.032,0.0124
21.18,9.2502,-0.182,-0.0974,-0.1839,-0.0158,0.0091
21.19,9.3671,-0.0065,-0.0966,-0.0752,-0.0174,0.011
21.2,9.5597,-0.0565,-0.0428,0.0334,-0.0536,-0.0035
21.21,9.4722,0.0495,-0.1524,0.1437,-0.0059,-0.0114
21.22,9.5055,0.1107,-0.0577,0.2603,0.018,-0.0024
21.23,9.6297,0.1612,-0.0574,0.3357,-0.0122,0.01
21.24,9.8295,0.2254,-0.0464,0.4032,0.0429,-0.0435
21.25,10.0659,0.1658,0.0443,0.418,-0.0051,0.0079
21.26,10.1221,0.1773,0.0737,0.3616,0.0029,0.0062
21.27,10.4827,0.164,0.0094,0.3077,-0.0273,0.0012
21.28,10.5944,0.1311,0.0695,0.2331,0.0057,-0.003
21.29,10.6922,0.0762,0.1075,0.1621,-0.0396,-0.0513
21.3,10.7125,0.0344,0.0862,-0.0064,0.0139,-0.0088
21.31,10.6631,-0.0051,0.1264,-0.0867,0.0145,0.0358
21.32,10.6425,-0.0833,0.0998,-0.1985,0.0272,0.0003
21.33,10.5128,-0.1265,0.1582,-0.2751,-0.0204,-0.0061
21.34,10.2748,-0.2611,-0.0351,-0.3604,0.0032,0.0003
21.35,10.0706,-0.1959,0.0064,-0.4237,0.0113,0.0071
21.36,9.9307,-0.1729,-0.0629,-0.413,0.0088,0.0132
21.37,9.8627,-0.1412,-0.0158,-0.3789,-0.0173,-0.0046
21.38,9.4829,-0.1769,-0.1511,-0.2954,-0.0478,0.0085
21.39,9.3491,-0.1271,-0.0709,-0.1919,0.0069,0.0335
21.4,9.4158,-0.0662,-0.1297,-0.0983,-0.003,0.0201
21.41,9.4006,0.0494,-0.1361,0.0746,-0.0113,0.0468
21.42,9.4625,0.1323,-0.1638,0.1347,0.0153,-0.0131
21.43,9.574,0.1109,-0.0987,0.2896,-0.0009,0.0335
21.44,9.6867,0.2156,0.0017,0.3641,-0.0264,-0.0158
21.45,10.0046,0.1999,-0.0261,0.4054,-0.0386,0.0071
21.46,9.9528,0.1935,0.0364,0.3856,-0.0226,0.0146
21.47,10.2071,0.1772,0.1177,0.3823,0.0479,-0.0102
21.48,10.4374,0.1961,0.074,0.292,0.0145,0.0018
21.49,10.4508,0.1318,0.0537,0.2492,0.0038,0.0182
21.5,10.6568,0.1756,0.1185,0.1221,-0.0036,-0.0142
21.51,10.8367,-0.0401,0.0728,-0.0032,-0.0049,0.0334
21.52,10.6796,-0.0311,0.0706,-0.1385,0.0233,-0.0277
21.53,10.6143,-0.1378,0.0071,-0.2723,-0.0098,0.0388
21.54,10.3642,-0.1992,0.1091,-0.3322,0.0115,0.02
21.55,10.2481,-0.1865,0.0175,-0.3497,-0.007,-0.0018
21.56,10.0781,-0.1926,0.0166,-0.4069,0.0388,-0.0081
21.57,9.889,-0.049,-0.0742,-0.3932,0.0148,-0.0101
21.58,9.8364,-0.182,-0.0286,-0.3325,0.0249,-0.0027
21.59,9.6275,-0.1916,-0.1118,-0.234,-0.0117,-0.001
21.6,9.3862,-0.0715,-0.0976,-0.1438,0.0212,0.0251
21.61,9.4402,-0.1313,-0.0552,-0.0746,-0.0063,0.0394
21.62,9.4638,0.0279,-0.0591,0.0262,0.0022,0.004
21.63,9.5765,0.0905,-0.0905,0.2265,0.0327,-0.0169
21.64,9.7255,0.1785,-0.1604,0.3228,-0.0209,-0.0109
21.65,9.6739,0.2239,0.1015,0.3543,0.0041,-0.0037
21.66,9.8745,0.1708,0.0673,0.3665,0.0088,-0.0206
21.67,10.0348,0.1915,0.0462,0.4172,0.0104,-0.0236
21.68,10.3067,0.1457,0.0015,0.3659,-0.009,0.0419
21.69,10.5299,0.0961,0.059,0.3027,0.0417,0.0061
21.7,10.7007,0.1227,0.0573,0.2322,-0.0259,-0.0167
21.71,10.6952,-0.0115,0.1597,0.111,0.0292,0.0163
21.72,10.6986,-0.0283,0.1131,-0.0388,0.0243,-0.0236
21.73,10.7007,-0.1163,0.0551,-0.1396,0.038,-0.0219
21.74,10.5306,-0.0921,0.0566,-0.2259,-0.0318,-0.0161
21.75,10.6265,-0.0717,0.1148,-0.3134,-0.0174,0.0331
21.76,10.1582,-0.2545,0.1121,-0.3736,0.0298,-0.0051
21.77,10.1101,-0.2926,0.0789,-0.3812,-0.0375,-0.0488
21.78,10.0643,-0.1986,0.0106,-0.392,-0.0321,0.0242
21.79,9.726,-0.1667,-0.0673,-0.3314,-0.0098,-0.0061
21.8,9.5654,-0.1166,-0.2391,-0.3225,0.0038,-0.037
21.81,9.4523,-0.0983,-0.0776,-0.1609,0.0318,-0.0063
21.82,9.4211,-0.0276,-0.0997,-0.0199,-0.0037,0.0104
21.83,9.5584,0.0608,-0.0907,0.077,-0.0122,0.0081
21.84,9.342,0.1506,-0.0843,0.1878,0.0062,0.036
21.85,9.763,0.048,-0.1348,0.2708,0.0094,-0.0171
21.86,9.688,0.1614,-0.0158,0.3798,0.0088,0.0009
21.87,9.9678,0.2084,0.0166,0.4064,-0.0036,-0.014
21.88,10.1508,0.1518,0.0491,0.412,-0.0391,-0.0308
21.89,10.4194,0.2664,0.091,0.3252,-0.0184,0.0177
21.9,10.406,0.114,0.0987,0.2884,0.0284,0.0093
21.91,10.6922,0.0965,0.0665,0.1915,0.0037,0.0057
21.92,10.8875,0.0702,0.0942,0.0792,-0.0065,0.0085
21.93,10.6294,-0.0471,0.1042,-0.0475,0.0224,-0.0137
21.94,10.7081,-0.1683,0.0979,-0.1588,-0.0226,-0.0201
21.95,10.5401,-0.1489,0.127,-0.238,-0.0045,0.0008
21.96,10.4821,-0.116,0.0868,-0.3733,0.0028,0.0232
21.97,10.2725,-0.2093,0.1312,-0.3493,-0.0088,0.0322
21.98,10.0265,-0.2423,0.1078,-0.3902,0.002,0.0159
21.99,9.9251,-0.1431,-0.0281,-0.3797,-0.0038,0.0006
22.0,9.8576,-0.1783,-0.2506,-0.3055,-0.028,0.0054
22.01,9.5596,-0.1451,-0.0183,-0.2682,0.0036,0.0002
22.02,9.5411,-0.0591,-0.1213,-0.1464,-0.0266,-0.0205
22.03,9.344,0.031,-0.14,-0.0175,0.0033,0.0005
22.04,9.3935,0.1713,-0.1165,0.1316,0.0275,-0.0267
22.05,9.5871,0.1485,-0.1068,0.2134,-0.0056,-0.0025
22.06,9.7968,0.2105,-0.0341,0.314,-0.0234,0.0327
22.07,9.8732,0.1587,-0.1171,0.3563,-0.0025,0.0165
22.08,10.0093,0.1477,-0.0639,0.4077,-0.0166,-0.0185
22.09,10.2299,0.1991,0.0371,0.4255,0.0119,-0.0014
22.1,10.3137,0.1806,0.0793,0.3704,-0.003,-0.0167
22.11,10.6176,0.0848,0.1041,0.2758,0.0342,-0.0013
22.12,10.7531,0.0809,0.05,0.1929,0.0233,0.0208
22.13,10.7071,0.0525,0.0498,0.0766,-0.0031,0.0131
22.14,10.7086,-0.0095,0.0737,-0.045,0.0143,0.0497
22.15,10.7122,-0.0599,0.1025,-0.1481,-0.0079,0.0238
22.16,10.5476,-0.1205,0.148,-0.248,0.0007,0.0041
22.17,10.4256,-0.1981,-0.052,-0.3481,-0.0072,0.0135
22.18,10.4177,-0.2206,0.0114,-0.377,0.0153,-0.004
22.19,10.0356,-0.2594,-0.0742,-0.4065,0.0287,-0.0226
22.2,9.8367,-0.0967,-0.1194,-0.3904,0.016,0.0261
22.21,9.6452,-0.155,-0.0144,-0.3168,0.0184,0.0202
22.22,9.625,-0.1226,-0.0558,-0.2243,0.0185,-0.0048
22.23,9.4682,-0.1034,-0.0734,-0.1472,0.011,0.0055
22.24,9.4041,0.1493,-0.0539,0.0222,-0.0228,0.0248
22.25,9.5938,0.0081,-0.1191,0.0683,0.034,0.0169
22.26,9.6895,0.0941,-0.1033,0.2853,0.0361,-0.0293
22.27,9.6637,0.1796,0.0485,0.3476,-0.0047,0.0049
22.28,9.7338,0.2178,-0.0468,0.3703,-0.0074,-0.0034
22.29,10.1553,0.2476,0.0317,0.3997,0.0122,0.0223
22.3,10.2145,0.2841,0.0252,0.3935,0.011,0.0206
22.31,10.5125,0.1955,-0.0399,0.3286,-0.004,0.0264
22.32,10.4407,0.0785,-0.0268,0.2665,-0.025,-0.0224
22.33,10.7746,0.0677,0.0626,0.1583,0.0061,-0.0157
22.34,10.6574,0.038,0.1522,0.0433,0.011,0.0223
22.35,10.8056,0.0659,0.1376,-0.0713,0.0145,-0.0118
22.36,10.6835,-0.164,0.1339,-0.2146,0.007,-0.0304
22.37,10.4894,-0.0822,0.0209,-0.2838,-0.0054,0.0107
22.38,10.3753,-0.1686,0.1268,-0.352,0.0199,-0.0109
22.39,10.278,-0.155,-0.0307,-0.3912,0.0013,0.0358
22.4,10.0364,-0.2035,-0.0019,-0.4012,-0.0093,0.0059
22.41,9.8869,-0.2241,-0.042,-0.3413,-0.0036,0.0032
22.42,9.8348,-0.1116,-0.0753,-0.3054,-0.0349,-0.0074
22.43,9.4272,-0.0702,-0.0188,-0.2012,-0.0036,0.0318
22.44,9.6076,0.0013,-0.1324,-0.0687,0.0138,0.0072
22.45,9.4695,0.0119,-0.1673,0.0235,0.0068,-0.0082
22.46,9.4307,0.0413,-0.0924,0.1469,0.0304,-0.0159
22.47,9.4924,0.0456,-0.0986,0.2452,-0.0053,-0.0015
22.48,9.7261,0.2057,0.1121,0.3542,0.0097,-0.0196
22.49,9.9906,0.2122,0.0041,0.3768,0.0159,0.0206
22.5,10.0998,0.1517,-0.0205,0.4257,0.0469,-0.0362
22.51,10.424,0.164,-0.0231,0.3799,0.0029,-0.0028
22.52,10.3626,0.1414,-0.0373,0.3122,-0.0209,0.0122
22.53,10.6201,0.0494,0.0274,0.2607,0.017,0.0068
22.54,10.617,0.0304,0.0992,0.1365,0.0373,-0.0143
22.55,10.7877,-0.0441,0.1712,0.0375,-0.0065,0.0132
22.56,10.8123,-0.0679,0.1532,-0.1492,0.0168,-0.0177
22.57,10.6334,-0.1398,0.0972,-0.2057,0.0246,-0.0004
22.58,10.3342,-0.2305,0.0504,-0.3076,0.0203,0.013
22.59,10.3948,-0.0809,0.0549,-0.3853,0.0025,0.0093
22.6,10.2258,-0.1358,-0.0134,-0.4079,-0.014,-0.0135
22.61,10.0279,-0.2359,0.0684,-0.4053,-0.0016,0.0239
22.62,9.9093,-0.164,-0.0554,-0.3562,0.0092,0.0017
22.63,9.5666,-0.1214,-0.0746,-0.312,0.0182,0.0149
22.64,9.5898,-0.0346,-0.199,-0.182,0.0067,0.0306
22.65,9.5656,-0.0784,-0.108,-0.0476,-0.0076,0.0224
22.66,9.3204,0.0772,-0.0575,0.0508,0.0111,0.0224
22.67,9.539,0.0532,-0.1449,0.1773,0.0172,0.0039
22.68,9.5775,0.0645,-0.113,0.2845,0.0076,0.0159
22.69,9.76,0.2064,-0.0129,0.3651,-0.0167,0.0043
22.7,9.9738,0.2583,-0.0987,0.4248,-0.0036,-0.0242
22.71,10.1011,0.3291,0.0579,0.3895,0.019,0.0061
22.72,10.2771,0.1278,0.0079,0.3611,-0.0277,0.0051
22.73,10.5048,0.1937,0.0414,0.3333,-0.0419,0.0117
22.74,10.5502,0.095,0.0254,0.2452,0.0302,-0.0026
22.75,10.6376,0.101,0.114,0.1391,0.0102,-0.0152
22.76,10.8103,-0.071,0.223,0.0428,0.0121,0.0131
22.77,10.6368,-0.1201,0.1349,-0.1138,-0.0215,-0.0263
22.78,10.6986,-0.1502,0.0398,-0.2142,0.0148,0.0292
22.79,10.55,-0.1517,0.1196,-0.331,0.0055,-0.0046
22.8,10.2059,-0.218,0.021,-0.3292,-0.0317,0.0049
22.81,10.0991,-0.1665,0.0763,-0.4056,0.0285,0.0112
22.82,10.0537,-0.1436,0.0179,-0.396,0.0032,0.0118
22.83,9.6977,-0.1428,-0.1975,-0.3525,-0.0079,-0.0282
22.84,9.5866,-0.0541,-0.124,-0.283,-0.0076,0.0165
22.85,9.5516,-0.0644,-0.0433,-0.1849,-0.0403,0.0061
22.86,9.5212,-0.0884,-0.0915,-0.0656,0.0119,-0.0127
22.87,9.4405,0.1007,-0.1499,0.0377,0.0052,-0.015
22.88,9.4727,0.0594,-0.1211,0.1636,-0.0039,-0.0067
22.89,9.7466,0.1843,-0.1673,0.3164,0.0256,-0.026
22.9,9.9265,0.2539,-0.0526,0.3652,-0.0277,0.0344
22.91,10.0486,0.2188,0.0906,0.4105,-0.0119,0.0297
22.92,10.1717,0.1242,0.0503,0.4215,-0.017,0.009
22.93,10.2888,0.1381,0.1487,0.4048,-0.0056,-0.0045
22.94,10.4528,0.2186,0.1088,0.2695,0.0013,-0.0039
22.95,10.6887,0.0987,0.1358,0.1897,0.0086,0.0152
22.96,10.7585,0.0561,0.1952,0.0883,-0.0069,0.0352
22.97,10.8587,0.0304,0.1188,-0.0245,-0.0175,-0.0114
22.98,10.7614,-0.0317,0.0849,-0.1391,0.0337,-0.0224
22.99,10.4967,-0.1056,0.1318,-0.2481,0.0482,0.031
23.0,10.5615,-0.1722,0.1315,-0.3192,0.0029,-0.0357
23.01,10.2235,-0.2051,0.0081,-0.3781,-0.0151,-0.0202
23.02,10.0797,-0.157,-0.0336,-0.4143,0.0295,-0.0049
23.03,9.9361,-0.1647,-0.0204,-0.4283,-0.0289,-0.0312
23.04,9.8974,-0.1804,-0.0131,-0.3549,-0.0067,0.0222
23.05,9.8402,-0.0734,-0.0371,-0.266,-0.0139,0.0171
23.06,9.5389,-0.0824,-0.1637,-0.1569,-0.0232,-0.0115
23.07,9.4288,-0.0602,-0.004,-0.0577,-0.0056,0.0256
23.08,9.4978,0.0045,-0.1298,0.075,-0.0173,0.029
23.09,9.595,0.0496,-0.1003,0.1745,0.0003,-0.0023
23.1,9.6183,0.1322,-0.1136,0.2891,0.0005,-0.009
23.11,9.9477,0.2416,0.0912,0.3383,-0.0124,0.0452
23.12,10.0083,0.1575,-0.0029,0.3785,-0.0074,0.0144
23.13,10.2243,0.2072,-0.0275,0.3693,-0.0046,0.0051
23.14,10.4235,0.147,0.0869,0.3567,0.0162,0.0273
23.15,10.564,0.1328,0.1069,0.2743,-0.003,0.006
23.16,10.7173,0.023,0.0776,0.2152,0.0165,-0.0101
23.17,10.6697,0.0314,0.1398,0.0929,0.0117,0.0016
23.18,10.6859,-0.0273,0.0583,-0.0365,0.0114,0.0208
23.19,10.5955,-0.0489,0.0679,-0.1679,0.0278,-0.0398
23.2,10.6174,-0.1163,-0.0235,-0.2474,-0.0224,-0.0058
23.21,10.4981,-0.2274,-0.0116,-0.3212,-0.0095,0.0277
23.22,10.2939,-0.1382,0.1177,-0.382,0.0353,-0.0102
23.23,10.1966,-0.1894,0.0796,-0.3678,-0.0051,0.0309
23.24,9.8691,-0.1795,-0.0288,-0.3696,-0.0563,0.0283
23.25,9.7487,-0.1623,0.0244,-0.3053,-0.0041,-0.0013
23.26,9.4681,-0.1455,-0.0882,-0.2365,0.0027,-0.0114
23.27,9.4317,-0.0557,-0.1065,-0.1196,-0.0523,-0.0057
23.28,9.4808,0.0162,-0.0971,-0.031,0.0267,0.0533
23.29,9.5142,-0.0352,-0.1028,0.0952,-0.0143,0.0375
23.3,9.5006,0.0802,-0.0952,0.2213,0.0066,0.0025
23.31,9.6457,0.1397,-0.0075,0.3118,-0.0045,-0.0122
23.32,9.6952,0.1969,-0.0316,0.3782,-0.0258,0.0023
23.33,9.9763,0.2587,0.0256,0.42,-0.0214,0.0049
23.34,10.2702,0.1574,0.0715,0.3634,-0.0187,-0.0249
23.35,10.4274,0.1504,0.0676,0.331,0.0217,0.0016
23.36,10.5755,0.1131,0.0235,0.2821,-0.003,0.0264
23.37,10.6513,0.0496,0.0217,0.1649,-0.0104,-0.036
23.38,10.7072,0.0152,0.1061,0.1326,-0.0187,0.0165
23.39,10.6553,0.011,0.0905,-0.0448,0.0239,0.0275
23.4,10.7073,-0.1378,0.0949,-0.1719,0.0293,-0.0112
23.41,10.5753,-0.1137,0.0729,-0.2804,0.0237,0.0339
23.42,10.428,-0.2579,0.1795,-0.3552,0.0098,-0.0138
23.43,10.1639,-0.223,-0.0441,-0.3892,0.0058,0.0088
23.44,9.8379,-0.2159,-0.107,-0.3966,-0.0243,-0.0061
23.45,9.9066,-0.1022,-0.0202,-0.381,-0.0049,-0.0061
23.46,9.6108,-0.1694,-0.0816,-0.3168,-0.0137,-0.0123
23.47,9.4471,-0.2214,-0.0673,-0.1959,-0.0365,0.014
23.48,9.4873,-0.1569,-0.0667,-0.0863,0.0211,0.017
23.49,9.3725,0.0042,-0.0358,0.0101,-0.0139,-0.0013
23.5,9.5193,0.0925,-0.1705,0.0968,0.0239,-0.0272
23.51,9.5703,0.1343,-0.1095,0.2418,0.0176,0.0081
23.52,9.71,0.1672,-0.0394,0.3487,0.0111,0.0084
23.53,9.716,0.2459,0.0041,0.4029,0.0123,-0.0043
23.54,10.1125,0.1728,0.1046,0.4142,-0.0123,0.0373
23.55,10.2296,0.2385,0.0727,0.4159,0.0372,-0.0313
23.56,10.3577,0.0886,0.0497,0.3415,0.0009,-0.0443
23.57,10.5465,0.0861,0.0309,0.2752,0.006,-0.0146
23.58,10.4963,-0.0098,0.0633,0.1475,-0.013,0.0142
23.59,10.7209,0.0088,0.0697,0.051,-0.0186,-0.0211
23.6,10.5973,-0.0398,0.131,-0.0484,0.0095,-0.0196
23.61,10.5052,-0.0884,0.1011,-0.2001,0.0044,0.019
23.62,10.3737,-0.1392,0.0041,-0.3018,-0.0158,0.0093
23.63,10.4253,-0.224,0.0242,-0.3533,-0.0288,0.0075
23.64,10.0997,-0.2064,0.0614,-0.3984,-0.0254,0.0156
23.65,10.0763,-0.2733,0.005,-0.3839,0.0239,-0.0085
23.66,9.7216,-0.1139,-0.013,-0.3731,-0.0123,-0.0076
23.67,9.463,-0.1644,-0.0475,-0.264,-0.0068,0.0162
23.68,9.3845,-0.1273,-0.0044,-0.2316,0.029,-0.0269
23.69,9.4973,0.0321,-0.0854,-0.0695,-0.0224,-0.0429
23.7,9.3675,-0.0496,-0.1191,0.0098,-0.0145,-0.0087
23.71,9.3762,0.015,-0.1392,0.1066,-0.0154,0.0186
23.72,9.5278,0.0688,-0.0661,0.2519,0.0324,0.0051
23.73,9.6962,0.1613,-0.1788,0.3243,0.0399,0.0171
23.74,9.9198,0.2126,-0.0389,0.3598,0.015,-0.0403
23.75,10.138,0.237,-0.0103,0.3664,0.0157,0.0063
23.76,10.1851,0.3196,-0.0385,0.3818,-0.0116,0.0131
23.77,10.2821,0.0522,0.0103,0.3489,0.0389,-0.027
23.78,10.4961,0.154,0.1191,0.2588,0.0054,0.0172
23.79,10.6449,0.0434,0.105,0.1437,0.0171,-0.0022
23.8,10.587,-0.0168,0.1049,0.0347,-0.0021,0.0614
23.81,10.569,-0.0783,0.1125,-0.0951,-0.0054,-0.0435
23.82,10.5975,-0.1483,0.0904,-0.2344,0.0333,0.0274
23.83,10.4402,-0.065,0.1287,-0.3268,0.0108,-0.0079
23.84,10.2818,-0.1399,0.0476,-0.3681,0.029,-0.0323
23.85,10.0292,-0.1973,-0.0604,-0.4001,0.0051,-0.0105
23.86,9.8748,-0.1294,0.064,-0.3768,-0.017,0.0055
23.87,9.6329,-0.2533,-0.0274,-0.3401,-0.0117,0.0207
23.88,9.6186,-0.2088,-0.0997,-0.2725,0.0021,0.0344
23.89,9.512,-0.203,-0.1509,-0.1939,-0.0125,0.0284
23.9,9.215,-0.0724,-0.0784,-0.1026,-0.0221,-0.0193
23.91,9.2796,0.0307,-0.1052,0.0534,0.024,0.0226
23.92,9.2837,0.0857,-0.0128,0.1717,-0.0109,0.0078
23.93,9.4546,0.1388,-0.0927,0.2149,0.0028,-0.0131
23.94,9.6473,0.0996,-0.0944,0.3237,0.0059,-0.0042
23.95,9.7163,0.2339,0.0199,0.3736,-0.0118,-0.0142
23.96,9.9513,0.2117,0.0513,0.4019,0.029,0.0007
23.97,10.1346,0.2244,0.0429,0.3594,-0.0223,-0.0146
23.98,10.4011,0.0642,0.0946,0.3168,0.0052,-0.0206
23.99,10.524,0.1311,0.0797,0.2268,0.0049,0.0096
24.0,10.5468,0.0024,0.1068,0.1204,-0.0011,0.0126
24.01,10.6489,-0.0174,0.1582,-0.0093,-0.0259,-0.0038
24.02,10.5626,-0.0303,0.1271,-0.1268,0.0174,0.0274
24.03,10.4999,-0.1068,0.0746,-0.2444,0.0149,-0.0052
24.04,10.5221,-0.1983,0.1304,-0.3038,-0.0135,-0.0061
24.05,10.3251,-0.1856,-0.0814,-0.3605,0.0141,0.0132
24.06,9.9221,-0.276,0.1101,-0.4143,0.0075,-0.0026
24.07,9.8961,-0.1374,-0.1077,-0.3594,-0.0256,0.0017
24.08,9.7115,-0.183,-0.0817,-0.3519,-0.0171,-0.0504
24.09,9.4011,-0.0791,-0.0758,-0.2395,0.0228,0.0003
24.1,9.4481,-0.1115,-0.0978,-0.1832,0.0062,-0.0365
